"Time (s)","Acceleration x (m/s^2)","Acceleration y (m/s^2)","Acceleration z (m/s^2)"
6.397630000E-2,-1.372695923E0,5.871988297E0,9.221677780E0
6.898118300E-2,-1.695806503E0,6.985057831E0,9.754405975E0
7.398606600E-2,-1.791631699E0,7.596841812E0,1.012303352E1
7.899094800E-2,-2.099170685E0,7.480653763E0,9.932580948E0
8.399583100E-2,-1.885061264E0,7.132389069E0,9.531612396E0
8.900071400E-2,-1.206199646E0,6.884441376E0,9.183347702E0
9.400559700E-2,-7.968463898E-1,6.550550461E0,9.074346542E0
9.904099700E-2,-7.345600128E-1,6.154373169E0,8.912641525E0
1.040458800E-1,-7.657032013E-1,5.855218887E0,8.534431458E0
1.090507630E-1,-9.202213287E-1,5.633623123E0,8.119089127E0
1.140556460E-1,-1.031618118E0,5.398851395E0,7.831613541E0
1.190605280E-1,-9.777164459E-1,5.251819611E0,7.688175201E0
1.240654110E-1,-8.675174713E-1,5.229061127E0,7.666614532E0
1.291008120E-1,-8.124179840E-1,5.242237091E0,7.857965469E0
1.341056940E-1,-6.435260773E-1,5.360820770E0,8.067583084E0
1.391105770E-1,-7.094058990E-1,5.402444839E0,8.273607254E0
1.441459780E-1,-1.103187561E0,5.365612030E0,8.462562561E0
1.491508600E-1,-1.555961609E0,5.099697113E0,8.649421692E0
1.541557430E-1,-1.852720261E0,4.677167892E0,8.740455627E0
1.591606260E-1,-2.062337875E0,4.297760010E0,8.929410934E0
1.641655090E-1,-2.234523773E0,3.967163086E0,9.147413254E0
1.691703920E-1,-2.309986115E0,3.754251480E0,9.373500824E0
1.742057920E-1,-2.295612335E0,3.635667801E0,9.611865997E0
1.792106750E-1,-2.229732513E0,3.623689651E0,9.803216934E0
1.842155580E-1,-2.145885468E0,3.611711502E0,9.913415909E0
1.892204410E-1,-2.108753204E0,3.666810989E0,9.876283646E0
1.942253230E-1,-2.018018723E0,3.732690811E0,9.731647491E0
1.992302060E-1,-1.926984787E0,3.808153152E0,9.439380646E0
2.042656070E-1,-1.828763962E0,3.900085449E0,9.100698471E0
2.092704890E-1,-2.020414352E0,3.999504089E0,8.782379150E0
2.142753720E-1,-1.815587997E0,4.197143555E0,8.581146240E0
2.192802550E-1,-1.367904663E0,3.963569641E0,8.168199539E0
2.242851380E-1,-1.586805344E0,3.289798737E0,7.278522491E0
2.292900210E-1,-1.152297974E0,3.839296341E0,7.485744476E0
2.343254210E-1,-8.699131012E-1,4.692739487E0,8.024461746E0
2.393608210E-1,-8.375720978E-1,5.023036957E0,8.250848770E0
2.443657040E-1,-9.190235138E-1,4.755025864E0,7.987329483E0
2.493705870E-1,-9.226169586E-1,4.254638672E0,7.503711700E0
2.543754700E-1,-9.142322540E-1,3.780603409E0,7.217733383E0
2.593803530E-1,-9.142322540E-1,3.512292862E0,7.306072235E0
2.644157530E-1,-1.000474930E0,3.398500443E0,7.470172882E0
2.694206360E-1,-1.177452087E0,3.461984634E0,7.727703094E0
2.744255190E-1,-1.304420471E0,3.410478592E0,7.925043106E0
2.794304020E-1,-1.351135254E0,3.384126663E0,8.034044266E0
2.844352840E-1,-1.268486023E0,3.240688324E0,8.152627945E0
2.894401670E-1,-1.101989746E0,3.120906830E0,8.373924255E0
2.944755680E-1,-9.633426666E-1,3.038257599E0,8.572761536E0
2.994804500E-1,-9.801120758E-1,2.968784332E0,8.675773621E0
3.044853330E-1,-9.010562897E-1,2.932849884E0,8.741653442E0
3.094902160E-1,-6.279544830E-1,2.913684845E0,8.785972595E0
3.144950990E-1,-2.904701233E-1,2.863376617E0,8.846761703E0
3.195304990E-1,-1.527214050E-2,2.751081467E0,8.705718994E0
3.245353820E-1,7.336616516E-2,2.748685837E0,8.348770142E0
3.295402650E-1,-2.096176147E-3,2.777433395E0,8.122682571E0
3.345451480E-1,3.383827209E-2,2.882541656E0,8.172990799E0
3.395500300E-1,1.188831329E-1,3.019092560E0,8.511672974E0
3.445854310E-1,5.090713501E-3,2.995136261E0,8.959356308E0
3.495903140E-1,-2.772941589E-1,2.922069550E0,9.504062653E0
3.545951960E-1,-4.114494324E-1,2.880146027E0,1.036109924E1
3.596000790E-1,-4.030647278E-1,2.837324142E0,1.121963310E1
3.646049620E-1,-3.886909485E-1,2.686399460E0,1.177032852E1
3.696098450E-1,-3.982734680E-1,2.477979660E0,1.199162483E1
3.746452450E-1,-4.330101013E-1,2.266265869E0,1.198443794E1
3.796501280E-1,-2.784919739E-1,2.188407898E0,1.181913948E1
3.846550110E-1,-5.240440369E-2,2.162055969E0,1.176314163E1
3.896598940E-1,-3.467674255E-1,1.868890762E0,1.145530319E1
3.946647770E-1,-5.108680725E-1,1.803010941E0,1.093215752E1
3.997001770E-1,-6.028003693E-1,1.971603394E0,1.047608948E1
4.047050600E-1,-1.179847717E0,1.953636169E0,9.827173233E0
4.097099430E-1,-1.762884140E0,1.676042557E0,9.285161972E0
4.147148250E-1,-2.606744766E0,1.293041229E0,8.888685226E0
4.197197080E-1,-3.824323654E0,1.249919891E0,7.802865982E0
4.247245910E-1,-3.644651413E0,2.291419983E0,5.457843781E0
4.297599910E-1,-3.168220520E0,3.162830353E0,3.385623932E0
4.347648740E-1,-4.045919418E0,4.292968750E0,1.718265533E0
4.398002750E-1,-5.630628586E0,5.259006500E0,-1.769771576E-1
4.448051570E-1,-6.577800751E0,5.961524963E0,-1.537994385E0
4.498100400E-1,-6.982362747E0,6.220252991E0,-2.701671600E0
4.548149230E-1,-7.730398178E0,5.877677917E0,-3.559906006E0
4.598198060E-1,-8.558986664E0,5.487489700E0,-3.288002014E0
4.648246890E-1,-9.426803589E0,5.321292877E0,-1.708084106E0
4.698295710E-1,-9.960729599E0,5.368007660E0,2.254886627E-1
4.748344540E-1,-9.724760056E0,5.564149857E0,1.665561676E0
4.798698550E-1,-9.242340088E0,5.594095230E0,2.874456406E0
4.848747370E-1,-9.227966309E0,5.256610870E0,3.878824234E0
4.898796200E-1,-9.894849777E0,4.812520981E0,4.663093567E0
4.948845030E-1,-1.091359138E1,4.119285583E0,2.100069046E0
4.998893860E-1,-1.217758560E1,4.007888794E0,-1.164875031E1
5.049247860E-1,-1.311367798E1,5.699502945E0,-1.215273094E1
5.099296690E-1,-1.258484268E1,6.630804062E0,5.597988129E0
5.149345520E-1,-1.100222969E1,6.833234787E0,1.277349854E1
5.199394350E-1,-9.616956711E0,6.014228821E0,9.656185150E0
5.249443180E-1,-9.094110489E0,4.643629074E0,5.414722443E0
5.299797180E-1,-9.089319229E0,4.139648438E0,4.379211426E0
5.349846010E-1,-8.481128693E0,4.544210434E0,5.164678574E0
5.399894840E-1,-7.624990463E0,4.928409576E0,5.883966446E0
5.449943660E-1,-7.707639694E0,4.843664169E0,6.277748108E0
5.499992490E-1,-8.386501312E0,4.469945908E0,6.423881531E0
5.550041320E-1,-8.895273209E0,4.399274826E0,6.055253983E0
5.600395320E-1,-8.773096085E0,4.559782028E0,5.228162766E0
5.650444150E-1,-8.670084000E0,4.604101181E0,4.579246521E0
5.700492980E-1,-9.366912842E0,4.521451950E0,4.624763489E0
5.750846980E-1,-1.074949074E1,4.589727402E0,4.853246689E0
5.800895810E-1,-1.224945450E1,4.934398651E0,4.956258774E0
5.850944640E-1,-1.339276886E1,5.534204483E0,4.245355606E0
5.900993470E-1,-1.385362816E1,6.376867294E0,2.737007141E0
5.951042300E-1,-1.330413055E1,6.971881866E0,2.247400284E0
6.001091120E-1,-1.223508072E1,7.315654755E0,2.407608032E0
6.051139950E-1,-1.146428680E1,7.487840652E0,2.218652725E0
6.101188780E-1,-1.068720436E1,7.103641510E0,1.781450272E0
6.151542780E-1,-9.918806076E0,6.612836838E0,1.608066559E0
6.201591610E-1,-9.416023254E0,6.348419189E0,1.879671097E0
6.251640440E-1,-9.244735718E0,6.223846436E0,2.451927185E0
6.301689270E-1,-9.356132507E0,6.353210449E0,2.806180954E0
6.351738100E-1,-9.394462585E0,6.714651108E0,2.675918579E0
6.402092100E-1,-9.212394714E0,7.169521332E0,2.501037598E0
6.452140930E-1,-8.970735550E0,7.362369537E0,2.374069214E0
6.502189760E-1,-8.491909027E0,7.053333282E0,2.193498611E0
6.552238590E-1,-7.984334946E0,6.419988632E0,1.805406570E0
6.602287410E-1,-7.888509750E0,5.899238586E0,1.245428085E0
6.652641420E-1,-8.240367889E0,5.644403458E0,5.282363892E-1
6.702690250E-1,-8.720392227E0,5.637216568E0,-2.377662659E-1
6.752739070E-1,-9.147712708E0,5.753404617E0,-1.218477249E0
6.802787900E-1,-9.287857056E0,5.821680069E0,-2.377063751E0
6.852836730E-1,-8.694040298E0,5.451555252E0,-1.107080460E0
6.903190730E-1,-8.983911514E0,4.802938461E0,8.294868469E-2
6.953239560E-1,-9.984685898E0,4.357650757E0,-6.725730896E-1
7.003288390E-1,-1.014010239E1,4.392087936E0,-1.581115723E0
7.053337220E-1,-9.964323044E0,4.826894760E0,-1.012453079E0
7.103386050E-1,-9.878080368E0,5.398851395E0,-8.220005035E-1
7.153434870E-1,-9.065362930E0,5.965118408E0,-9.250125885E-1
7.203788880E-1,-7.636968613E0,6.322067261E0,-6.007041931E-1
7.253837710E-1,-6.555042267E0,6.512220383E0,-2.737007141E-1
7.303886530E-1,-4.970033646E0,8.863531113E0,-6.725730896E-1
7.353935360E-1,-4.501987457E0,1.034193420E1,3.329925537E-1
7.404289370E-1,-6.243610382E0,9.201015472E0,9.459743500E-1
7.454338190E-1,-6.609842300E0,8.788068771E0,5.342254639E-1
7.504387020E-1,-6.087894440E0,8.236175537E0,6.108856201E-1
7.554435850E-1,-5.478805542E0,7.690271378E0,4.863128662E-1
7.604484680E-1,-4.813119888E0,7.445917130E0,2.518405914E-1
7.654533510E-1,-4.012380600E0,7.433938980E0,2.386646271E-1
7.704887510E-1,-3.391014099E0,7.520181656E0,4.419937134E-1
7.754936340E-1,-3.511993408E0,7.643556595E0,3.270034790E-1
7.804985170E-1,-3.878225327E0,7.836404800E0,-8.833885193E-2
7.855034000E-1,-3.947698593E0,7.895996094E0,-8.115196228E-2
7.905082820E-1,-3.928533554E0,7.626787186E0,1.667957306E-1
7.955131650E-1,-3.969259262E0,7.096454620E0,1.871585846E-1
8.005485660E-1,-3.892599106E0,6.353210449E0,2.066230774E-2
8.055534480E-1,-4.051908493E0,5.418016434E0,-7.240791321E-1
8.105583310E-1,-4.577449799E0,4.315727234E0,-1.452949524E0
8.155632140E-1,-5.067955017E0,3.231105804E0,-1.608665466E0
8.205986140E-1,-5.302726746E0,2.086593628E0,-1.638610840E0
8.256034970E-1,-5.513542175E0,9.864006042E-1,-2.220449448E0
8.306083800E-1,-5.867795944E0,8.863830566E-2,-2.872659683E0
8.356132630E-1,-6.253192902E0,-5.842342377E-1,-3.302375793E0
8.406181460E-1,-6.591875076E0,-1.875778198E0,-3.731193542E0
8.456230280E-1,-7.690870285E0,-2.823848724E0,-3.099046707E0
8.506584290E-1,-7.592649460E0,-3.454797745E0,-5.707588196E0
8.556633120E-1,-7.210845947E0,-6.816165924E0,-2.274051666E0
8.606681940E-1,-8.301456451E0,-4.661596298E0,-6.434062958E0
8.656730770E-1,-5.409332275E0,-4.991893768E0,-7.477958679E0
8.706779600E-1,-6.220851898E0,-4.916431427E0,-2.569911957E0
8.756828430E-1,-9.118965149E0,-4.158514023E0,-4.364238739E0
8.806877260E-1,-9.171669006E0,-2.081802368E0,-7.196771622E0
8.857231260E-1,-9.534606934E0,-5.138027191E0,-8.040632248E0
8.907280090E-1,-9.765485764E0,-4.988300323E0,-3.749160767E0
8.957328920E-1,-7.020692825E0,-2.059043884E0,-3.550323486E0
9.007377750E-1,-7.461189270E0,-2.747188568E0,-7.639663696E0
9.057731750E-1,-8.573360443E0,-2.735210419E0,-5.873785019E0
9.107780580E-1,-8.678468704E0,-3.147258759E0,-5.374595642E0
9.157829410E-1,-9.266296387E0,-3.576974869E0,-5.785146713E0
9.207878230E-1,-9.287857056E0,-3.279916763E0,-4.958055496E0
9.258232240E-1,-9.070154190E0,-2.313879013E0,-4.195646286E0
9.308281070E-1,-9.416023254E0,-8.833885193E-1,-3.734786987E0
9.358329890E-1,-9.620550156E0,6.249599457E-1,-3.531158447E0
9.408378720E-1,-9.247131348E0,2.398923874E0,-3.420959473E0
9.458427550E-1,-8.706018448E0,4.083351135E0,-3.040353775E0
9.508781550E-1,-8.329006195E0,5.533006668E0,-2.610637665E0
9.558830380E-1,-8.689249039E0,5.452753067E0,-2.149778366E0
9.608879210E-1,-8.757524490E0,4.298957825E0,-2.525592804E0
9.658928040E-1,-7.686079025E0,4.997882843E0,-3.191278458E0
9.708976870E-1,-7.540245056E0,5.900436401E0,-3.118211746E0
9.759330870E-1,-7.306671143E0,6.163955688E0,-3.497619629E0
9.809379700E-1,-6.765558243E0,6.286132812E0,-3.665313721E0
9.859428530E-1,-6.484371185E0,6.293319702E0,-3.933324814E0
9.909477350E-1,-6.507129669E0,5.921997070E0,-4.400173187E0
9.959526180E-1,-6.995538712E0,4.890079498E0,-4.260028839E0
1.000988019E0,-7.799871445E0,3.149654388E0,-3.981237411E0
1.005992902E0,-8.215213776E0,1.900932312E0,-4.364238739E0
1.010997784E0,-8.638940811E0,8.405666351E-1,-4.656505585E0
1.016002667E0,-8.622171402E0,-6.947326660E-2,-4.601406097E0
1.021007550E0,-8.757524490E0,-5.243434906E-1,-4.272006989E0
1.026012433E0,-9.041406631E0,6.108856201E-2,-4.217206955E0
1.031047833E0,-1.009578323E1,-4.824199677E-1,-4.147733688E0
1.036052716E0,-1.065845680E1,-1.268785477E0,-3.830312729E0
1.041057599E0,-1.106092262E1,-1.298730850E0,-3.866247177E0
1.046062482E0,-1.150740814E1,-1.402940750E0,-4.268413544E0
1.051067364E0,-1.176463890E1,-1.325082779E0,-3.980039597E0
1.056102765E0,-1.210451889E1,-8.199043274E-1,-3.634170532E0
1.061107648E0,-1.245787430E1,-1.173858643E-1,-3.747962952E0
1.066112530E0,-1.276301765E1,6.489162445E-1,-3.942907333E0
1.071117413E0,-1.330053711E1,1.072643280E0,-4.095029831E0
1.076122296E0,-1.381290245E1,1.152896881E0,-3.966863632E0
1.081127179E0,-1.374702263E1,1.271480560E0,-3.647346497E0
1.086162579E0,-1.351135254E1,1.222370148E0,-3.239191055E0
1.091167462E0,-1.353171539E1,1.197216034E0,-3.503608704E0
1.096172345E0,-1.257046890E1,1.180446625E0,-2.704067230E0
1.101177228E0,-1.094593239E1,1.425699234E0,-2.245903015E-2
1.106182110E0,-1.047668839E1,1.282260895E0,4.324111938E-1
1.111217511E0,-1.004337883E1,1.569437027E0,2.015323639E-1
1.116222394E0,-9.364517212E0,1.944053650E0,9.855022430E-1
1.121227277E0,-9.746320724E0,6.968288422E-1,2.230630875E0
1.126232159E0,-9.128547668E0,1.568239212E0,2.151575089E0
1.131237042E0,-8.046621323E0,2.491155624E0,1.907220840E0
1.136272443E0,-7.068605423E0,2.648069382E0,2.223443985E0
1.141277325E0,-5.837850571E0,2.872959137E0,2.539367676E0
1.146282208E0,-4.931703568E0,2.962795258E0,2.290222168E0
1.151287091E0,-4.310337067E0,3.451204300E0,2.466300964E0
1.156291974E0,-3.890203476E0,4.547803879E0,2.302200317E0
1.161296857E0,-3.030771255E0,6.707464218E0,1.889253616E0
1.166332257E0,-2.139896393E0,9.758897781E0,2.124025345E0
1.171337140E0,-2.852296829E0,1.228598785E1,4.238168716E0
1.176342023E0,-5.282363892E0,1.052010918E1,1.867692947E0
1.181346905E0,-6.956010818E0,8.461065292E0,1.200809479E-1
1.186351788E0,-8.846162796E0,7.471071243E0,3.144264221E-2
1.191387189E0,-1.090161324E1,6.117240906E0,-4.180074692E0
1.196392071E0,-1.150141907E1,4.045021057E0,-6.247503281E0
1.201396954E0,-1.382847404E1,2.233924866E0,-8.608097076E0
1.206401837E0,-2.025205612E1,-1.185836792E-1,-1.189999199E1
1.211406720E0,-3.114229012E1,-4.401670456E0,-5.906126022E0
1.216442120E0,-3.041671371E1,-5.147609711E0,4.332496643E0
1.221447003E0,-1.766267967E1,-1.317596436E-1,6.848806381E0
1.226451886E0,-1.004068375E0,6.132812500E0,1.096210289E1
1.231456769E0,1.834842873E1,1.148375130E1,1.537096024E1
1.236461652E0,2.854782295E1,1.516852951E1,1.277469635E1
1.241466534E0,2.286389160E1,1.648762321E1,5.222173691E0
1.246501935E0,1.396113205E1,1.652235985E1,-2.772941589E-1
1.251506818E0,5.878276825E0,1.534101486E1,-1.955732346E0
1.256511700E0,-1.601179123E0,1.378595161E1,-2.532779694E0
1.261516583E0,-7.007516861E0,1.265461540E1,-2.791208267E0
1.266521466E0,-1.151579285E1,1.027246094E1,-4.313930511E0
1.271556866E0,-1.201618004E1,8.562879562E0,-4.072271347E0
1.276561749E0,-1.112770081E1,7.757349014E0,-3.155344009E0
1.281566632E0,-1.073152351E1,6.719442368E0,-1.864698410E0
1.286571515E0,-1.058209610E1,6.084899902E0,3.401794434E-1
1.291576398E0,-1.153376007E1,6.090888977E0,7.390518188E-1
1.296611798E0,-1.149662781E1,7.593248367E0,1.563747406E0
1.301616681E0,-1.618667221E1,6.415197372E0,-1.795225143E0
1.306621564E0,-1.311966705E1,7.541742325E0,-1.326580048E-1
1.311626446E0,-8.789865494E0,9.201015472E0,1.033414841E0
1.316631329E0,-8.357753754E0,9.695413589E0,-6.558036804E-2
1.321636212E0,-8.884492874E0,9.904731750E0,-1.438575745E0
1.326671612E0,-1.006973076E1,9.478609085E0,-2.718441010E0
1.331676495E0,-1.046111679E1,9.395061493E0,-3.591049194E0
1.336681378E0,-9.416023254E0,9.379489899E0,-4.702022552E0
1.341686261E0,-8.852151871E0,8.570066452E0,-4.596614838E0
1.346691144E0,-8.387699127E0,7.736986160E0,-4.245954514E0
1.351696027E0,-7.665716171E0,7.062915802E0,-4.319919586E0
1.356700909E0,-7.534255981E0,5.962722778E0,-4.139348984E0
1.361736310E0,-6.817064285E0,4.810125351E0,-2.628604889E0
1.366741193E0,-7.965169907E0,2.857686996E0,-4.713401794E-1
1.371746075E0,-7.735189438E0,7.854671478E-1,2.039279938E-1
1.376750958E0,-5.184143066E0,-6.587982178E-2,1.189130783E0
1.381755841E0,-1.948545456E0,-5.818386078E-1,2.669929504E0
1.386791241E0,2.648368835E0,-7.636070251E-1,2.781026840E0
1.391796124E0,6.953315735E0,-1.973400116E-1,2.964292526E0
1.396801007E0,9.107885361E0,5.554866791E-1,2.711853027E0
1.401805890E0,9.728054047E0,1.529909134E0,1.961122513E0
1.406810773E0,7.129095078E0,2.065032959E0,1.442768097E0
1.411846173E0,5.880672455E0,2.602552414E0,-1.290046692E0
1.416851056E0,6.246904373E0,3.821329117E0,-4.358249664E0
1.421855939E0,6.478981018E0,5.456346512E0,-5.698005676E0
1.426860821E0,6.704170227E0,7.787294388E0,-6.741901398E0
1.431865704E0,6.519706726E0,1.084831047E1,-7.940015793E0
1.436901105E0,5.884265900E0,1.295975876E1,-7.793882370E0
1.441905987E0,5.821979523E0,1.380391884E1,-7.740280151E0
1.446910870E0,6.802391052E0,1.429951477E1,-7.082979202E0
1.451915753E0,8.346673965E0,1.479391289E1,-6.509525299E0
1.456920636E0,1.077194977E1,1.665411949E1,-5.882169724E0
1.461925519E0,1.326430321E1,1.879461479E1,-4.225591660E0
1.466960919E0,1.456423187E1,2.088360405E1,-7.621097565E-1
1.471965802E0,1.300078392E1,2.244345856E1,2.108453751E0
1.476970685E0,1.058269501E1,2.322383499E1,3.839296341E0
1.481975568E0,9.336668015E0,2.460281944E1,5.854021072E0
1.486980450E0,6.861083984E0,2.455131340E1,6.610740662E0
1.492015851E0,3.413473129E0,2.255335808E1,5.772869110E0
1.497020734E0,9.962825775E-1,1.899195480E1,4.822103500E0
1.502025616E0,-4.306144714E-1,1.514696884E1,1.750606537E0
1.507030499E0,-3.553916931E0,1.116662979E1,-2.130613327E0
1.512035382E0,-3.941709518E0,9.323192596E0,-2.277645111E0
1.517040265E0,-3.419761658E0,8.510175705E0,-1.576324463E0
1.522075665E0,-3.428146362E0,7.753755569E0,-1.960523605E0
1.527111066E0,-3.085571289E0,7.730997086E0,-1.347541809E0
1.532115948E0,-2.604349136E0,8.303253174E0,-3.204154968E-2
1.537120831E0,-2.082401276E0,9.021343231E0,1.220273972E0
1.542125714E0,-1.387069702E0,9.570840836E0,2.103662491E0
1.547130597E0,-8.519458771E-1,1.013710785E1,2.066530228E0
1.552135480E0,-9.765186310E-1,1.046141624E1,1.603275299E0
1.557140362E0,-1.543983459E0,1.030959320E1,1.104085922E0
1.562175763E0,-2.183017731E0,1.004128265E1,4.419937134E-1
1.567180646E0,-4.449882507E-1,9.847536087E0,5.246429443E-1
1.572185528E0,6.036987305E-1,9.335170746E0,3.773117065E-1
1.577190411E0,9.247131348E-1,8.718595505E0,-8.983612061E-4
1.582195294E0,1.337659836E0,8.231384277E0,-3.335914612E-1
1.587200177E0,1.923091888E0,7.772920609E0,-6.438255310E-1
1.592235577E0,3.106832504E0,7.342006683E0,-1.031618118E0
1.597240460E0,4.204629898E0,6.900012970E0,-1.669754028E0
1.602245343E0,4.405862808E0,6.449934006E0,-1.756895065E0
1.607250226E0,4.381906509E0,6.041778564E0,-1.119058609E0
1.612255109E0,4.224992752E0,5.857614517E0,-5.827369690E-1
1.617290509E0,3.973751068E0,5.807306290E0,-6.318473816E-2
1.622295392E0,3.758144379E0,5.953140259E0,3.282012939E-1
1.627300275E0,3.612010956E0,6.165153503E0,5.965118408E-1
1.632305157E0,3.322439194E0,6.354408264E0,5.090713501E-1
1.637310040E0,3.535350800E0,6.393636703E0,-1.518230438E-1
1.642345441E0,3.686275482E0,6.398427963E0,-3.970756531E-1
1.647350323E0,3.594043732E0,6.201087952E0,-1.134929657E-1
1.652355206E0,3.256559372E0,6.052558899E0,2.051258087E-1
1.657360089E0,2.556137085E0,5.884864807E0,-7.396507263E-2
1.662364972E0,2.043771744E0,5.733041763E0,7.698955536E-1
1.667369855E0,2.687896729E0,5.765382767E0,-2.129116058E-1
1.672405255E0,3.048139572E0,6.047767639E0,7.150955200E-1
1.677410138E0,3.136777878E0,6.177131653E0,1.184339523E0
1.682415021E0,3.120008469E0,6.257385254E0,7.615108490E-1
1.687419903E0,3.243383408E0,6.681112289E0,-2.165349960E0
1.692424786E0,3.712627411E0,7.273731232E0,-3.125398636E0
1.697460187E0,3.682682037E0,7.400400162E0,4.643928528E0
1.702465069E0,3.052930832E0,7.246181488E0,5.609966278E0
1.707469952E0,2.620819092E0,6.906002045E0,4.493003845E0
1.712474835E0,2.086893082E0,6.824850082E0,3.657527924E0
1.717479718E0,9.223175049E-1,6.896419525E0,2.636390686E0
1.722515118E0,2.745990753E-1,7.094058990E0,2.102464676E0
1.727520001E0,-5.689620972E-2,7.149158478E0,1.123250961E0
1.732524884E0,-9.238147736E-1,7.177906036E0,-2.665138245E-1
1.737529767E0,-1.342750549E0,7.478258133E0,-1.740425110E0
1.742534650E0,-1.291244507E0,7.645952225E0,-2.922967911E0
1.747570050E0,-1.183441162E0,7.692667007E0,-3.628181458E0
1.752574933E0,-8.842868805E-1,7.796876907E0,-3.847082138E0
1.757579816E0,-7.249774933E-1,8.080459595E0,-3.114618301E0
1.762584698E0,-2.317771912E-1,8.239768982E0,-2.982858658E0
1.767589581E0,3.189182281E-1,8.052909851E0,-2.825944901E0
1.772594464E0,5.773468018E-1,7.941513062E0,-1.589500427E0
1.777599347E0,9.139328003E-1,7.630380630E0,-1.000474930E0
1.782634747E0,8.744049072E-1,7.312061310E0,-1.107080460E0
1.787639630E0,7.318649292E-1,7.187488556E0,-1.934171677E0
1.792644513E0,8.276901245E-1,7.158740997E0,-2.961297989E0
1.797649396E0,1.338857651E0,7.100048065E0,-2.872659683E0
1.802684796E0,1.697902679E0,7.019794464E0,-1.915006638E0
1.807689679E0,1.422704697E0,6.556539536E0,-7.848682404E-1
1.812694562E0,-2.713050842E-1,6.325660706E0,1.176853180E-1
1.817699444E0,-1.444564819E0,6.794904709E0,8.896770477E-1
1.822704327E0,-1.397850037E0,7.206653595E0,7.746868134E-1
1.827709210E0,-1.251716614E0,7.799272537E0,3.701248169E-1
1.832744610E0,-1.159484863E0,8.554494858E0,5.162582397E-1
1.837749493E0,-8.639240265E-1,8.804838181E0,5.054779053E-1
1.842754376E0,-8.983612061E-4,9.168674469E0,1.356525421E-1
1.847759259E0,1.178350449E0,9.435487747E0,2.425575256E-2
1.852764142E0,1.709880829E0,9.476213455E0,1.045093536E-1
1.857799542E0,2.443841934E0,9.665468216E0,-2.940635681E-1
1.862804425E0,3.229009628E0,9.617555618E0,-7.001228333E-1
1.867809308E0,4.448984146E0,9.360324860E0,-1.133432388E0
1.872814191E0,5.338361740E0,8.888385773E0,-1.342750549E0
1.877819073E0,6.117540359E0,8.351165771E0,-1.108278275E0
1.882854474E0,6.346323013E0,7.849580765E0,-4.689445496E-1
1.887859357E0,6.669433594E0,7.835206985E0,-2.365684509E-2
1.892864239E0,5.449758530E0,7.961875916E0,1.008260727E0
1.897869122E0,4.389093399E0,8.308044434E0,2.104860306E0
1.902874005E0,3.069700241E0,9.441476822E0,2.592071533E0
1.907878888E0,2.823249817E0,9.475015640E0,2.301002502E0
1.912914288E0,3.506603241E0,9.253719330E0,1.646396637E0
1.917919171E0,4.446588516E0,9.331577301E0,5.557861328E-1
1.922924054E0,3.839595795E0,9.846338272E0,-3.934822083E-1
1.927928937E0,2.272554398E0,1.013111877E1,-1.014848709E0
1.932933819E0,2.025804520E0,1.005445862E1,-8.711109161E-1
1.937969220E0,2.303697586E0,1.025569153E1,-5.767478943E-1
1.942974103E0,2.548950195E0,1.058958244E1,-3.264045715E-1
1.947978985E0,2.808876038E0,1.058838463E1,-3.479652405E-1
1.952983868E0,3.495822906E0,1.026048279E1,-7.252769470E-1
1.957988751E0,4.151926041E0,1.021496582E1,-1.303222656E0
1.963024152E0,4.405862808E0,1.031079102E1,-1.911413193E0
1.968029034E0,4.654708862E0,1.006763458E1,-2.361492157E0
1.973033917E0,4.678665161E0,9.395959854E0,-2.447734833E0
1.978038800E0,3.885112762E0,8.951869965E0,-2.202482224E0
1.983043683E0,3.016996384E0,8.597616196E0,-1.790433884E0
1.988048566E0,2.270158768E0,8.429922104E0,-1.328376770E0
1.993083966E0,1.747013092E0,8.340385437E0,-7.037162781E-1
1.998088849E0,9.103393555E-1,8.742551804E0,-1.302623749E-1
2.003093732E0,-6.408309937E-2,9.195026398E0,-6.887435913E-3
2.008098614E0,1.065755844E0,9.145915985E0,-1.122951508E-1
2.013103497E0,2.115640640E0,9.558862686E0,6.019020081E-2
2.018138898E0,3.024183273E0,1.012752533E1,-8.833885193E-2
2.023143780E0,3.950992584E0,1.061713219E1,-1.530208588E-1
2.028148663E0,4.396280289E0,1.108278275E1,-1.937465668E-1
2.033153546E0,4.514564514E0,1.134630203E1,-3.048439026E-1
2.038158429E0,4.336389542E0,1.172091866E1,-2.725028992E-1
2.043193829E0,4.460962296E0,1.210871124E1,-2.593269348E-1
2.048198712E0,5.527317047E0,1.160353279E1,-1.345146179E0
2.053203595E0,5.243734360E0,1.064587975E1,-2.203680038E0
2.058208478E0,4.078859329E0,9.730150223E0,-2.462108612E0
2.063213360E0,2.945426941E0,8.859937668E0,-2.191701889E0
2.068218243E0,2.170740128E0,8.193054199E0,-1.578720093E0
2.073253644E0,1.760189056E0,7.729799271E0,-1.258903503E0
2.078258527E0,1.665561676E0,7.570489883E0,-1.267288208E0
2.083263409E0,1.763782501E0,7.532159805E0,-1.150201797E0
2.088268292E0,1.792530060E0,7.991821289E0,-1.230455399E0
2.093273175E0,2.247400284E0,7.953491211E0,-8.782978058E-1
2.098308575E0,2.463006973E0,7.796876907E0,-1.041200638E0
2.103313458E0,1.925487518E0,7.683084488E0,-9.465732574E-1
2.108318341E0,1.442768097E0,7.793283463E0,-6.977272034E-1
2.113323224E0,1.328077316E0,8.225395203E0,-6.665840149E-1
2.118328107E0,1.856014252E0,8.576055527E0,-5.432090759E-1
2.123363507E0,2.987051010E0,8.429922104E0,-2.760963440E-1
2.128368390E0,3.713825226E0,8.260131836E0,-1.781749725E-1
2.133373273E0,3.949794769E0,8.211021423E0,-1.865596771E-1
2.138378155E0,4.272905350E0,8.336791992E0,3.144264221E-2
2.143383038E0,4.384302139E0,8.421537399E0,2.542362213E-1
2.148387921E0,4.286081314E0,8.480230331E0,2.518405914E-1
2.153423321E0,4.154321671E0,8.566473007E0,1.620044708E-1
2.158428204E0,4.190256119E0,8.544912338E0,-1.494274139E-1
2.163433087E0,4.084848404E0,8.427526474E0,-2.940635681E-1
2.168437970E0,3.682682037E0,8.361946106E0,-2.533378601E-1
2.173442853E0,3.306867599E0,8.230186462E0,-1.757793427E-1
2.178478253E0,3.051733017E0,8.003799438E0,-6.054954529E-1
2.183483136E0,2.534576416E0,7.828020096E0,-1.309211731E0
2.188488019E0,1.785343170E0,7.746568680E0,-1.835950851E0
2.193492902E0,1.439474106E0,7.728601456E0,-2.129415512E0
2.198497784E0,1.142416000E0,7.839998245E0,-2.341129303E0
2.203533185E0,1.089712143E0,7.961875916E0,-2.631000519E0
2.208538068E0,1.591297150E0,8.193054199E0,-3.127794266E0
2.213542950E0,2.436655045E0,8.240966797E0,-3.682083130E0
2.218547833E0,3.169118881E0,8.293670654E0,-3.912961960E0
2.223552716E0,3.753353119E0,8.476636887E0,-3.256858826E0
2.228588116E0,4.133958817E0,8.698232651E0,-2.022809982E0
2.233592999E0,4.318422318E0,9.145915985E0,-9.561557770E-1
2.238597882E0,4.121980667E0,9.520532608E0,-2.425575256E-1
2.243602765E0,3.933025360E0,9.737337112E0,-2.449531555E-1
2.248607648E0,3.596439362E0,9.883470535E0,-8.243961334E-1
2.253612530E0,2.926261902E0,1.015028381E1,-1.583511353E0
2.258647931E0,2.285730362E0,1.047579002E1,-1.994062424E0
2.263652814E0,1.974298477E0,1.102648544E1,-2.077909470E0
2.268657696E0,1.687122345E0,1.154244423E1,-2.032392502E0
2.273662579E0,1.217878342E0,1.212188721E1,-1.612258911E0
2.278667462E0,7.270736694E-1,1.272887993E1,-1.028024673E0
2.283702862E0,4.575653076E-1,1.309630966E1,-4.366035461E-1
2.288707745E0,2.051258087E-1,1.312625504E1,1.706886292E-2
2.293712628E0,6.977272034E-2,1.296694565E1,-4.401969910E-2
2.298717511E0,5.737533569E-1,1.254681206E1,1.069049835E-1
2.303722394E0,1.457141876E0,1.204283142E1,5.593795776E-1
2.308727277E0,2.294115067E0,1.154723549E1,7.402496338E-1
2.313762677E0,2.966688156E0,1.106241989E1,8.249950409E-1
2.318767560E0,3.383527756E0,1.071056175E1,8.836879730E-1
2.323772443E0,3.534152985E0,1.035990143E1,9.292049408E-1
2.328777325E0,3.717418671E0,1.034552765E1,8.154125214E-1
2.333782208E0,3.614406586E0,1.060754967E1,6.983261108E-1
2.338817609E0,3.207448959E0,1.059676933E1,1.193922043E0
2.343822491E0,2.976270676E0,1.046261406E1,1.914407730E0
2.348827374E0,3.116415024E0,1.008919525E1,2.448333740E0
2.353832257E0,3.497020721E0,9.621149063E0,2.819356918E0
2.358837140E0,3.683879852E0,9.252521515E0,3.094854355E0
2.363872540E0,3.400297165E0,9.026134491E0,2.674720764E0
2.368877423E0,2.960699081E0,8.938694000E0,1.949144363E0
2.373882306E0,2.513015747E0,9.102794647E0,9.723262787E-1
2.378887189E0,2.001848221E0,9.406740189E0,2.051258087E-1
2.383892071E0,1.390363693E0,9.776865005E0,-3.898887634E-1
2.388896954E0,8.564376831E-1,1.018981171E1,-8.615283966E-1
2.393932355E0,5.162582397E-1,1.044584465E1,-1.166971207E0
2.398937237E0,2.877750397E-1,1.044464684E1,-1.202905655E0
2.403942120E0,-7.725906372E-2,1.046620750E1,-1.168169022E0
2.408947003E0,-4.988899231E-1,1.052609825E1,-1.186136246E0
2.413951886E0,-8.112201691E-1,1.075967216E1,-1.458938599E0
2.418987286E0,-1.140319824E0,1.094862747E1,-1.446960449E0
2.423992169E0,-1.248123169E0,1.067582512E1,-1.206499100E0
2.428997052E0,-9.010562897E-1,1.027006531E1,-1.308013916E0
2.434001935E0,-5.348243713E-1,1.020059204E1,-9.729251862E-1
2.439006818E0,9.492683411E-2,1.014070129E1,-4.210319519E-1
2.444042218E0,1.007062912E0,9.967018127E0,-4.557685852E-1
2.449047101E0,1.697902679E0,9.889459610E0,-1.084321976E0
2.454051984E0,2.042573929E0,9.580423355E0,-1.312805176E0
2.459056866E0,2.489059448E0,8.759321213E0,-1.037607193E0
2.464061749E0,2.905899048E0,7.951095581E0,-1.093904495E0
2.469097150E0,2.425874710E0,7.558511734E0,-1.050783157E0
2.474102032E0,2.046167374E0,7.219829559E0,-8.423633575E-1
2.479106915E0,1.959924698E0,7.115619659E0,-5.611763000E-1
2.484111798E0,1.632022858E0,7.145565033E0,-4.773292542E-1
2.489116681E0,1.358022690E0,7.324039459E0,-4.869117737E-1
2.494121564E0,1.275373459E0,7.547731400E0,-2.868766785E-1
2.499156964E0,1.161581039E0,7.550127029E0,-3.216133118E-1
2.504161847E0,1.098096848E0,7.528566360E0,-5.288352966E-1
2.509166730E0,1.080129623E0,7.438730240E0,-7.992420197E-1
2.514171612E0,1.100492477E0,7.303676605E0,-8.938694000E-1
2.519176495E0,1.160383224E0,7.593248367E0,-1.012453079E0
2.524211896E0,1.536197662E0,7.707040787E0,-1.504455566E0
2.529216778E0,1.708683014E0,7.842393875E0,-1.535598755E0
2.534221661E0,1.791332245E0,7.955886841E0,-1.363113403E0
2.539226544E0,1.661968231E0,7.947502136E0,-1.193323135E0
2.544231427E0,1.347242355E0,7.866350174E0,-9.357929230E-1
2.549266827E0,8.025360107E-1,7.913963318E0,-6.701774597E-1
2.554271710E0,3.033466339E-1,8.201438904E0,-5.432090759E-1
2.559276593E0,-5.569839478E-2,8.381111145E0,-3.838996887E-1
2.564281476E0,-3.407783508E-1,8.248153687E0,-3.803062439E-2
2.569286359E0,-8.324813843E-2,7.830415726E0,4.216308594E-1
2.574291241E0,5.114669800E-1,7.444719315E0,2.434558868E-1
2.579326642E0,1.088514328E0,7.219829559E0,-2.332744598E-1
2.584331525E0,1.913509369E0,6.910793304E0,-7.037162781E-1
2.589336407E0,2.174333572E0,6.802091599E0,-1.212488174E0
2.594341290E0,1.888355255E0,6.926364899E0,-1.505653381E0
2.599346173E0,1.453847885E0,7.347995758E0,-1.323585510E0
2.604381573E0,9.867000580E-1,7.859163284E0,-1.115465164E0
2.609386456E0,9.675350189E-1,8.894374847E0,-9.693317413E-1
2.614391339E0,1.203504562E0,9.411531448E0,-5.551872253E-1
2.619396222E0,1.105283737E0,9.470224380E0,-2.248897552E-1
2.624401105E0,6.707763672E-1,9.459444046E0,-1.853618622E-1
2.629436505E0,2.099170685E-1,9.278873444E0,-3.635368347E-1
2.634441388E0,-2.245903015E-2,9.050090790E0,-5.408134460E-1
2.639446271E0,-1.886558533E-1,8.867124557E0,-7.085075378E-1
2.644451153E0,-1.766777039E-1,8.609594345E0,-9.813098907E-1
2.649456036E0,3.892898560E-3,8.288879395E0,-2.445339203E0
2.654460919E0,2.123126984E-1,7.447114944E0,-9.177957535E0
2.659496319E0,1.438276291E0,7.563302994E0,-5.590202332E0
2.664501202E0,1.927883148E0,8.471845627E0,-1.938962936E0
2.669506085E0,2.072519302E0,9.172267914E0,-1.738029480E0
2.674510968E0,2.367181778E0,9.751710892E0,8.309841156E-1
2.679515851E0,2.291719437E0,1.003050232E1,3.072095871E0
2.684551251E0,2.570510864E0,9.847536087E0,3.830911636E0
2.689556134E0,3.164327621E0,9.335170746E0,4.677467346E0
2.694561017E0,3.073293686E0,8.671880722E0,4.110002518E0
2.699565900E0,2.405511856E0,8.719793320E0,2.083299637E0
2.704570782E0,1.484691620E0,8.669485092E0,-6.821556091E-1
2.709606183E0,5.126647949E-1,8.571264267E0,-3.179300308E0
2.714611066E0,-4.964942932E-1,8.820409775E0,-3.535949707E0
2.719615948E0,-1.169067383E0,9.311214447E0,-3.095453262E0
2.724620831E0,-5.752506256E-1,9.071651459E0,-2.476482391E0
2.729625714E0,-8.387699127E-1,9.761293411E0,-2.182119370E0
2.734630597E0,-7.249774933E-1,9.821184158E0,-1.128641129E0
2.739665997E0,-6.183719635E-1,1.012992096E1,-2.353706360E-1
2.744670880E0,-3.922843933E-2,1.005086517E1,6.731719971E-1
2.749675763E0,6.839523315E-1,9.870294571E0,1.128042221E0
2.754680646E0,9.139328003E-1,1.032157135E1,1.368503571E0
2.759685528E0,1.775760651E0,1.006763458E1,9.471721649E-1
2.764720929E0,2.455820084E0,9.247730255E0,6.611938477E-1
2.769725812E0,1.889553070E0,9.913116455E0,8.824901581E-1
2.774730694E0,1.889553070E0,1.261029625E1,1.023832321E0
2.779735577E0,2.037782669E0,1.487416649E1,1.587703705E0
2.784740460E0,2.356401443E0,1.648522758E1,1.307415009E0
2.789775860E0,3.470668793E0,1.609743500E1,9.124355316E-1
2.794780743E0,4.512168884E0,1.482026482E1,1.031019211E0
2.799785626E0,4.296861649E0,1.451003075E1,1.325382233E0
2.804790509E0,4.165102005E0,1.382907295E1,1.749408722E0
2.809795392E0,4.078859329E0,1.301126480E1,1.836549759E0
2.814800275E0,4.663093567E0,1.285824394E1,1.257406235E0
2.819835675E0,5.935771942E0,1.268695641E1,6.468200684E-1
2.824840558E0,7.683383942E0,1.179158974E1,-1.003170013E-1
2.829845441E0,8.120286942E0,1.164545631E1,1.011854172E0
2.834850323E0,8.396982193E0,9.582818985E0,2.739402771E0
2.839855206E0,7.154249191E0,8.068481445E0,3.349689484E0
2.844890607E0,8.685356140E0,8.728178024E0,9.971809387E-2
2.849895489E0,6.425378799E0,8.556890488E0,-3.168220520E-1
2.854900372E0,5.516536713E0,1.008320618E1,1.333766937E0
2.859905255E0,6.823951721E0,9.986183167E0,3.558109283E0
2.864910138E0,5.817188263E0,8.013381958E0,5.690219879E0
2.869945538E0,2.554939270E0,9.385478973E0,5.035314560E0
2.874950421E0,-1.203804016E0,1.104085922E1,4.428321838E0
2.879955304E0,-1.650289536E0,1.176763344E1,3.668308258E0
2.884960187E0,-9.681339264E-1,1.147536659E1,2.878049850E0
2.889965069E0,7.935523987E-2,1.304360580E1,-3.000526428E-1
2.894969952E0,-1.407432556E-2,1.732938766E1,-4.325908661E0
2.900005353E0,1.913509369E0,2.053863335E1,-4.651714325E0
2.905010235E0,3.804859161E0,2.255934715E1,-1.134630203E0
2.910015118E0,8.827896118E-1,2.075184441E1,3.062513351E0
2.915020001E0,-2.774438858E0,1.695686722E1,5.333271027E0
2.920024884E0,-3.744070053E0,1.124808121E1,6.490959167E0
2.925060284E0,-3.774015427E0,6.618825912E0,5.726154327E0
2.930065167E0,-3.880620956E0,4.052207947E0,5.197019577E0
2.935070050E0,-2.706163406E0,6.800594330E-1,3.998605728E0
2.940074933E0,-9.477710724E-1,-2.719638824E0,3.189481735E0
2.945079816E0,-1.325981140E0,-3.900085449E0,1.786241531E0
2.950115216E0,-6.447238922E-1,3.650341034E-1,-1.343948364E0
2.955120099E0,2.373170853E0,3.963569641E0,-2.581291199E-1
2.960124982E0,2.913085938E0,3.001125336E0,2.672325134E0
2.965129864E0,1.476306915E0,2.471990585E0,3.716220856E0
2.970134747E0,8.708114624E-1,2.314178467E0,4.217805862E0
2.975139630E0,1.361616135E0,2.930454254E0,4.405563354E0
2.980175030E0,4.207324982E-1,5.616853714E0,3.240987778E0
2.985179913E0,9.133338928E-2,8.728178024E0,2.318969727E0
2.990184796E0,6.935348511E-1,1.201528168E1,2.346519470E0
2.995189679E0,1.240636826E0,1.403839111E1,2.503433228E0
3.000194562E0,2.053354263E0,1.502479172E1,1.617649078E0
3.005229962E0,2.867568970E0,1.551918983E1,3.090362549E-1
3.010234845E0,4.051309586E0,1.512660599E1,-1.230455399E0
3.015239728E0,4.790061951E0,1.401922607E1,-2.401020050E0
3.020244610E0,4.737358093E0,1.246296501E1,-3.043947220E0
3.025249493E0,4.230981827E0,1.066624260E1,-2.815164566E0
3.030284894E0,3.412275314E0,9.121959686E0,-2.300403595E0
3.035289777E0,2.824447632E0,8.152328491E0,-1.696105957E0
3.040294659E0,2.641181946E0,7.247379303E0,-8.711109161E-1
3.045299542E0,2.732215881E0,6.475088120E0,-5.515937805E-1
3.050304425E0,2.823249817E0,5.798921585E0,-2.045269012E-1
3.055309308E0,2.764556885E0,5.285358429E0,7.336616516E-2
3.060344708E0,2.439050674E0,4.996685028E0,3.198165894E-1
3.065349591E0,2.043771744E0,4.840070724E0,4.072570801E-1
3.070354474E0,2.134805679E0,4.461561203E0,6.060943604E-1
3.075359357E0,2.086893082E0,4.177978516E0,7.378540039E-1
3.080364239E0,1.679935455E0,3.974349976E0,6.013031006E-1
3.085399640E0,1.197515488E0,3.812944412E0,5.030822754E-1
3.090404523E0,9.807109833E-1,3.842889786E0,5.294342041E-1
3.095409405E0,8.696136475E-1,4.091735840E0,3.641357422E-1
3.100414288E0,8.935699463E-1,4.441198349E0,2.922668457E-1
3.105419171E0,1.228658676E0,4.916431427E0,3.737182617E-1
3.110454571E0,1.620044708E0,5.376092911E0,5.222473145E-1
3.115459454E0,2.071321487E0,5.850427628E0,6.372375488E-1
3.120464337E0,2.461509705E0,6.653562546E0,8.429622650E-1
3.125469220E0,3.070898056E0,7.431543350E0,1.076536179E0
3.130474103E0,3.861156464E0,7.957084656E0,1.330173492E0
3.135509503E0,4.901458740E0,8.352363586E0,1.590099335E0
3.140514386E0,6.045671463E0,8.689847946E0,1.979089737E0
3.145519269E0,6.714950562E0,9.208202362E0,2.351310730E0
3.150524152E0,6.802391052E0,1.006404114E1,2.580093384E0
3.155529034E0,7.130292892E0,1.066504478E1,2.267463684E0
3.160533917E0,7.203359604E0,1.096539688E1,1.611660004E0
3.165569318E0,6.302003860E0,1.105044174E1,9.938869476E-1
3.170574200E0,4.689445496E0,1.077404594E1,6.695785522E-1
3.175579083E0,3.657527924E0,1.051172447E1,3.916854858E-1
3.180583966E0,3.517383575E0,1.024730682E1,-1.685924530E-1
3.185588849E0,3.990221024E0,9.860712051E0,-8.351764679E-1
3.190624249E0,4.493003845E0,9.636720657E0,-1.750905991E0
3.195629132E0,4.368730545E0,9.470224380E0,-2.523197174E0
3.200634015E0,3.820430756E0,9.191432953E0,-3.060716629E0
3.205638898E0,2.945426941E0,8.743749619E0,-3.258356094E0
3.210643780E0,1.887157440E0,8.489812851E0,-3.346694946E0
3.215648663E0,1.190328598E0,8.561681747E0,-3.267639160E0
3.220684064E0,6.156768799E-1,8.662298203E0,-3.048738480E0
3.225688946E0,-1.994361877E-1,8.713804245E0,-2.591472626E0
3.230693829E0,-8.124179840E-1,8.889883041E0,-2.231229782E0
3.235698712E0,-9.094409943E-1,9.163883209E0,-2.125822067E0
3.240703595E0,-9.669361115E-1,9.465433121E0,-1.885061264E0
3.245738995E0,-7.704944611E-1,9.842744827E0,-1.834753036E0
3.250743878E0,-1.143913269E-1,1.018382263E1,-2.037183762E0
3.255748761E0,3.129291534E-1,1.026168060E1,-2.207273483E0
3.260753644E0,5.330276489E-1,1.001852417E1,-2.323162079E0
3.265758527E0,9.175262451E-1,9.568445206E0,-2.378261566E0
3.270793927E0,1.900333405E0,9.433092117E0,-2.342327118E0
3.275798810E0,2.861579895E0,9.616357803E0,-2.209669113E0
3.280803693E0,3.281713486E0,9.953842163E0,-2.085096359E0
3.285808575E0,3.348791122E0,1.036948395E1,-1.851522446E0
3.290813458E0,3.128393173E0,1.095341873E1,-1.578720093E0
3.295848859E0,2.690292358E0,1.157358742E1,-1.352333069E0
3.300853741E0,2.416292191E0,1.223328400E1,-1.334365845E0
3.305858624E0,2.125223160E0,1.281392479E1,-1.520027161E0
3.310863507E0,1.976694107E0,1.317536545E1,-1.915006638E0
3.315868390E0,1.930278778E0,1.335383987E1,-2.405811310E0
3.320873273E0,2.031793594E0,1.341492844E1,-2.712451935E0
3.325908673E0,2.076112747E0,1.333946609E1,-2.770845413E0
3.330913556E0,1.945850372E0,1.319453049E1,-2.676517487E0
3.335918439E0,1.596088409E0,1.289058495E1,-2.119832993E0
3.340923321E0,1.422704697E0,1.248213005E1,-1.132234573E0
3.345928204E0,1.251417160E0,1.226921844E1,-3.910865784E-1
3.350963605E0,5.114669800E-1,1.191586304E1,-2.569313049E-1
3.355968487E0,1.955432892E-1,1.143464088E1,-8.231983185E-1
3.360973370E0,-1.347541809E-1,1.102528763E1,-1.081926346E0
3.365978253E0,-5.132637024E-1,1.054646111E1,-5.851325989E-1
3.370983136E0,-8.100223541E-1,1.008919525E1,-1.015148163E-1
3.376018536E0,-1.092407227E0,9.637918472E0,5.420112610E-2
3.381023419E0,-1.282859802E0,9.305225372E0,1.320590973E-1
3.386028302E0,-1.062461853E0,9.125553131E0,1.608066559E-1
3.391033185E0,-1.081626892E0,8.924320221E0,-1.766777039E-2
3.396038068E0,-1.215782166E0,9.015354156E0,-4.437904358E-1
3.401042950E0,-1.013650894E0,9.135135651E0,-9.226169586E-1
3.406078351E0,-1.300827026E0,8.959056854E0,-1.226861954E0
3.411083234E0,-1.591596603E0,8.585638046E0,-1.559555054E0
3.416088116E0,-2.026403427E0,8.268516541E0,-1.930578232E0
3.421092999E0,-2.313579559E0,8.348770142E0,-2.303997040E0
3.426097882E0,-2.390239716E0,8.610792160E0,-2.542362213E0
3.431133282E0,-2.029996872E0,9.167476654E0,-2.604648590E0
3.436138165E0,-1.576025009E0,9.736139297E0,-2.441745758E0
3.441143048E0,-4.557685852E-1,1.034432983E1,-2.047964096E0
3.446147931E0,8.540420532E-1,1.080039787E1,-1.462532043E0
3.451152814E0,1.253812790E0,1.086747551E1,-6.725730896E-1
3.456188214E0,1.645198822E0,1.100732040E1,3.862953186E-2
3.461193097E0,2.141992569E0,1.113428879E1,2.551345825E-1
3.466197980E0,2.344423294E0,1.122053146E1,4.940986633E-2
3.471202862E0,2.401918411E0,1.117022324E1,-4.881095886E-2
3.476207745E0,2.385149002E0,1.096060562E1,-1.446361542E-1
3.481212628E0,2.593269348E0,1.071056175E1,7.695960999E-2
3.486248028E0,2.710655212E0,1.061473656E1,2.790908813E-1
3.491252911E0,2.668731689E0,1.061114311E1,5.294342041E-1
3.496257794E0,2.610038757E0,1.043506432E1,1.144811630E0
3.501262677E0,2.471092224E0,1.001732635E1,1.644001007E0
3.506267560E0,2.310884476E0,9.628335953E0,1.732639313E0
3.511302960E0,1.969507217E0,9.005771637E0,1.852121353E0
3.516307843E0,1.761386871E0,8.496999741E0,1.726650238E0
3.521312726E0,1.407133102E0,8.125976562E0,1.168767929E0
3.526317609E0,1.166372299E0,7.746568680E0,5.402145386E-1
3.531322491E0,6.647872925E-1,7.576478958E0,9.971809387E-2
3.536357892E0,1.452350616E-1,7.736986160E0,-5.384178162E-1
3.541362775E0,-3.335914612E-1,7.915161133E0,-9.693317413E-1
3.546367657E0,-7.177906036E-1,8.118789673E0,-1.318794250E0
3.551372540E0,-7.788791656E-1,8.330802917E0,-1.666160583E0
3.556377423E0,-6.842517853E-1,8.254142761E0,-1.980886459E0
3.561412823E0,-7.225818634E-1,7.862756729E0,-2.251592636E0
3.566417706E0,-5.752506256E-1,7.478258133E0,-1.928182602E0
3.571422589E0,-4.372024536E-2,7.061717987E0,-1.692512512E0
3.576427472E0,4.123477936E-1,6.840421677E0,-1.389465332E0
3.581432355E0,7.486343384E-1,6.823652267E0,-9.453754425E-1
3.586437237E0,9.723262787E-1,6.864377975E0,-5.611763000E-1
3.591472638E0,1.175954819E0,6.902408600E0,-3.192176819E-1
3.596477521E0,1.445163727E0,6.848806381E0,-1.027126312E-1
3.601482403E0,1.639209747E0,6.803289413E0,-1.287651062E-2
3.606487286E0,1.864398956E0,6.922771454E0,6.258583069E-2
3.611492169E0,2.027002335E0,7.169521332E0,2.482471466E-1
3.616527569E0,2.070123672E0,7.308467865E0,5.102691650E-1
3.621532452E0,1.955133438E0,7.199466705E0,6.504135132E-1
3.626537335E0,1.970705032E0,6.944332123E0,5.485992432E-1
3.631542218E0,2.082101822E0,6.869169235E0,3.593444824E-1
3.636547101E0,2.066530228E0,7.129993439E0,1.620044708E-1
3.641551984E0,1.954235077E0,7.406389236E0,-5.120658875E-2
3.646587384E0,2.132410049E0,7.626787186E0,-1.134929657E-1
3.651592267E0,2.180322647E0,7.705842972E0,-1.110973358E-1
3.656597150E0,2.013826370E0,7.557313919E0,-2.033290863E-1
3.661602032E0,1.906322479E0,7.248577118E0,-3.838996887E-1
3.666606915E0,1.594890594E0,6.951519012E0,-5.575828552E-1
3.671642316E0,1.361616135E0,6.802091599E0,-5.252418518E-1
3.676647198E0,1.346044540E0,6.745794296E0,-4.366035461E-1
3.681652081E0,1.094503403E0,6.814069748E0,-2.701072693E-1
3.686656964E0,9.175262451E-1,6.730222702E0,-1.805706024E-1
3.691661847E0,8.049316406E-1,6.569715500E0,-1.075038910E-1
3.696697247E0,6.408309937E-1,6.266967773E0,3.623390198E-2
3.701702130E0,5.318298340E-1,5.907623291E0,1.632022858E-1
3.706707013E0,4.779281616E-1,5.568941116E0,2.063236237E-1
3.711711896E0,5.138626099E-1,5.237445831E0,2.123126984E-1
3.716716778E0,5.965118408E-1,5.035015106E0,2.350711823E-1
3.721721661E0,7.282714844E-1,4.820905685E0,3.821029663E-1
3.726757062E0,9.031524658E-1,4.632848740E0,4.120483398E-1
3.731761944E0,9.546585083E-1,4.607694626E0,3.425750732E-1
3.736766827E0,1.023832321E0,4.686750412E0,2.506427765E-1
3.741771710E0,1.187932968E0,4.792158127E0,1.871585846E-1
3.746776593E0,1.414319992E0,4.960750580E0,1.787738800E-1
3.751811993E0,1.585308075E0,5.166774750E0,1.356525421E-1
3.756816876E0,1.726650238E0,5.326084137E0,7.576179504E-2
3.761821759E0,1.857212067E0,5.451555252E0,-2.365684509E-2
3.766826642E0,1.953037262E0,5.639612198E0,-1.158885956E-1
3.771831525E0,1.998254776E0,5.800119400E0,-1.997356415E-1
3.776866925E0,1.979089737E0,6.036987305E0,-1.889553070E-1
3.781871808E0,1.929080963E0,6.278945923E0,-1.458339691E-1
3.786876691E0,1.948246002E0,6.561330795E0,7.336616516E-2
3.791881573E0,1.927883148E0,6.873661041E0,3.940811157E-1
3.796886456E0,1.899135590E0,7.359973907E0,7.378540039E-1
3.801891339E0,1.981485367E0,7.976249695E0,9.998760223E-1
3.806926739E0,2.143190384E0,8.546110153E0,1.222669601E0
3.811931622E0,2.365983963E0,9.117168427E0,1.457141876E0
3.816936505E0,2.650764465E0,9.576829910E0,1.718265533E0
3.821941388E0,2.880744934E0,9.802019119E0,2.009035110E0
3.826946271E0,3.072095871E0,1.052250481E1,2.599258423E0
3.831981671E0,3.437429428E0,1.115944290E1,2.630401611E0
3.836986554E0,4.117189407E0,1.164186287E1,2.618423462E0
3.841991437E0,4.516960144E0,1.181913948E1,2.681907654E0
3.846996319E0,5.053281784E0,1.229317474E1,2.739402771E0
3.852001202E0,5.477008820E0,1.262107658E1,2.765754700E0
3.857036603E0,5.332372665E0,1.260550499E1,2.796598434E0
3.862041485E0,4.884689331E0,1.249889946E1,2.766653061E0
3.867046368E0,4.354356766E0,1.241145897E1,2.642379761E0
3.872051251E0,3.567691803E0,1.224645996E1,2.430366516E0
3.877056134E0,2.728622437E0,1.203085327E1,2.207872391E0
3.882061017E0,2.126420975E0,1.199971008E1,1.906023026E0
3.887096417E0,1.724254608E0,1.206079865E1,1.638011932E0
3.892101300E0,1.434682846E0,1.206558990E1,1.398448944E0
3.897106183E0,1.317296982E0,1.213027191E1,1.240636826E0
3.902111066E0,1.326879501E0,1.209074402E1,1.009458542E0
3.907115948E0,1.636814117E0,1.202246857E1,8.872814178E-1
3.912151349E0,1.881168365E0,1.183710670E1,8.609294891E-1
3.917156232E0,2.047365189E0,1.158915901E1,1.007062912E0
3.922161114E0,2.349214554E0,1.142984962E1,1.191526413E0
3.927165997E0,2.762161255E0,1.139780807E1,1.430789948E0
3.932170880E0,3.105634689E0,1.148614693E1,1.878473282E0
3.937206280E0,3.651538849E0,1.152567482E1,2.291419983E0
3.942211163E0,4.619972229E0,1.162509346E1,2.818159103E0
3.947216046E0,4.929008484E0,1.200210571E1,3.602428436E0
3.952220929E0,3.423055649E0,1.272408867E1,4.095628738E0
3.957225812E0,4.344774246E0,1.281272697E1,4.038133621E0
3.962230694E0,5.048490524E0,1.203085327E1,4.242959976E0
3.967266095E0,6.383455276E0,1.115584946E1,4.566070557E0
3.972270978E0,7.232107162E0,1.014549255E1,5.201810837E0
3.977275860E0,6.931755066E0,1.012632751E1,6.105562210E0
3.982280743E0,5.553668976E0,1.030120850E1,7.175809860E0
3.987285626E0,4.820007324E0,1.052250481E1,7.733692169E0
3.992321027E0,4.421434402E0,1.134510422E1,7.950197220E0
3.997325909E0,3.576076508E0,1.324004745E1,9.357929230E0
4.002330792E0,4.029748917E0,1.276840782E1,1.057790375E1
4.007335675E0,5.197019577E0,9.857118607E0,1.019969368E1
4.012340558E0,6.381059647E0,8.049316406E0,8.254442215E0
4.017345441E0,7.402196884E0,6.989849091E0,6.876356125E0
4.022380841E0,7.145864487E0,6.731420517E0,6.549652100E0
4.027385724E0,6.794006348E0,6.687101364E0,5.964220047E0
4.032390607E0,6.981763840E0,6.776937485E0,4.913137436E0
4.037395489E0,7.154249191E0,7.157543182E0,4.012979507E0
4.042400372E0,7.375844955E0,7.757349014E0,3.092458725E0
4.047435773E0,7.604328156E0,8.134361267E0,1.913209915E0
4.052440655E0,8.010087967E0,8.234977722E0,1.366107941E0
4.057445538E0,8.278398514E0,7.892402649E0,1.276271820E0
4.062450421E0,8.488016129E0,7.448312759E0,1.410427094E0
4.067455304E0,8.655410767E0,7.001827240E0,2.059343338E0
4.072460187E0,8.402971268E0,6.298110962E0,2.679512024E0
4.077465069E0,8.359849930E0,5.932777405E0,2.999029160E0
4.082500470E0,8.874610901E0,5.917205811E0,4.058496475E0
4.087505353E0,9.305524826E0,6.210670471E0,4.916730881E0
4.092510235E0,9.744823456E0,6.931156158E0,5.580020905E0
4.097515118E0,9.849033356E0,7.702249527E0,6.194200516E0
4.102520001E0,9.779560089E0,8.349967957E0,6.869169235E0
4.107524884E0,9.476812363E0,8.867124557E0,7.303676605E0
4.112529767E0,8.877006531E0,9.071651459E0,7.660625458E0
4.117534650E0,8.085550308E0,8.766508102E0,7.534854889E0
4.122539532E0,7.178205490E0,8.111602783E0,6.990148544E0
4.127574933E0,6.341531754E0,7.575281143E0,6.136705399E0
4.132610333E0,5.500965118E0,7.192279816E0,5.205404282E0
4.137615216E0,5.036512375E0,7.003025055E0,4.463058472E0
4.142620099E0,4.751731873E0,6.832036972E0,3.953088760E0
4.147624982E0,4.540916443E0,6.742200851E0,3.438327789E0
4.152629864E0,4.493003845E0,6.733816147E0,2.910390854E0
4.157634747E0,4.459764481E0,6.781728745E0,2.451927185E0
4.162639630E0,4.403467178E0,6.741003036E0,2.145586014E0
4.167644513E0,4.193849564E0,6.739805222E0,2.049760818E0
4.172649396E0,3.840793610E0,6.742200851E0,2.031793594E0
4.177684796E0,3.713825226E0,6.727827072E0,1.921594620E0
4.182689679E0,3.972253799E0,6.774541855E0,1.717067719E0
4.187694562E0,4.251344681E0,6.769750595E0,1.366107941E0
4.192699444E0,4.363939285E0,6.727827072E0,9.914913177E-1
4.197734845E0,4.408258438E0,6.584089279E0,7.091064453E-1
4.202739728E0,4.453775406E0,6.386449814E0,6.731719971E-1
4.207744610E0,4.481025696E0,6.240615845E0,8.130168915E-1
4.212749493E0,4.310037613E0,6.264572144E0,1.086118698E0
4.217754376E0,4.308839798E0,6.523000717E0,1.048986435E0
4.222759259E0,4.362741470E0,6.878452301E0,9.986782074E-1
4.227794659E0,4.760116577E0,7.183895111E0,1.021436691E0
4.232799542E0,5.288053513E0,7.377941132E0,1.063360214E0
4.237804425E0,5.565647125E0,7.484247208E0,1.179548264E0
4.242809308E0,5.867496490E0,7.637567520E0,1.284656525E0
4.247814191E0,6.067232132E0,7.826822281E0,1.452350616E0
4.252819073E0,6.771247864E0,8.104415894E0,1.854516983E0
4.257854474E0,7.482151031E0,8.345176697E0,2.295013428E0
4.262889874E0,7.315954208E0,8.340385437E0,2.716644287E0
4.267894757E0,6.758071899E0,8.164306641E0,3.165525436E0
4.272899640E0,6.723335266E0,8.258934021E0,3.737781525E0
4.277904523E0,6.650268555E0,8.291275024E0,4.172288895E0
4.282909405E0,6.635894775E0,7.875932693E0,4.270210266E0
4.287944806E0,5.740528107E0,7.532159805E0,3.978242874E0
4.292949689E0,4.946975708E0,7.553720474E0,3.752155304E0
4.297954571E0,4.998182297E0,7.532159805E0,3.683879852E0
4.302959454E0,5.345548630E0,7.456697464E0,3.659923553E0
4.307964337E0,6.020517349E0,7.604028702E0,3.574878693E0
4.312999737E0,6.331949234E0,7.429147720E0,3.479053497E0
4.318004620E0,5.601581573E0,7.340808868E0,3.189481735E0
4.323009503E0,4.882293701E0,7.371952057E0,2.826543808E0
4.328014386E0,4.864326477E0,7.421960831E0,2.655555725E0
4.333019269E0,5.059270859E0,7.541742325E0,2.602851868E0
4.338054669E0,5.364713669E0,7.710634232E0,2.653160095E0
4.343059552E0,5.434186935E0,7.656732559E0,2.808576584E0
4.348064435E0,5.088018417E0,7.388422012E0,3.008611679E0
4.353069318E0,4.437005997E0,7.134784698E0,3.096052170E0
4.358074200E0,4.080057144E0,6.853597641E0,3.190679550E0
4.363109601E0,3.776111603E0,6.659551620E0,3.489833832E0
4.368114484E0,3.463481903E0,6.336441040E0,3.601230621E0
4.373119366E0,3.145162582E0,5.917205811E0,3.447910309E0
4.378124249E0,2.726226807E0,5.601282120E0,3.508998871E0
4.383129132E0,2.656753540E0,5.560556412E0,3.718616486E0
4.388134015E0,2.589675903E0,5.814493179E0,3.347293854E0
4.393169415E0,2.381555557E0,5.973503113E0,2.430366516E0
4.398174298E0,2.447435379E0,6.072921753E0,2.130014420E0
4.403179181E0,2.486663818E0,6.283737183E0,2.021013260E0
4.408184064E0,2.507026672E0,6.528989792E0,1.971902847E0
4.413188946E0,2.472290039E0,6.663145065E0,2.011430740E0
4.418193829E0,2.409105301E0,6.817663193E0,2.144388199E0
4.423229230E0,2.319269180E0,6.836828232E0,2.368080139E0
4.428234112E0,2.373170853E0,6.808080673E0,2.405212402E0
4.433238995E0,2.487861633E0,6.946727753E0,2.417190552E0
4.438243878E0,2.580093384E0,7.056926727E0,2.370475769E0
4.443279278E0,2.564521790E0,7.272533417E0,2.280639648E0
4.448284161E0,2.572906494E0,7.469873428E0,2.295013428E0
4.453289044E0,2.553741455E0,7.499818802E0,2.194696426E0
4.458293927E0,2.861579895E0,7.617204666E0,2.164751053E0
4.463298810E0,3.451803207E0,7.862756729E0,2.133607864E0
4.468303693E0,3.373945236E0,8.139152527E0,1.985078812E0
4.473339093E0,3.364362717E0,8.627561569E0,1.897638321E0
4.478343976E0,3.722209930E0,8.971035004E0,1.811395645E0
4.483348859E0,3.732990265E0,9.126750946E0,1.479900360E0
4.488353741E0,3.874332428E0,9.338764191E0,1.324184418E0
4.493358624E0,4.024957657E0,9.386676788E0,1.189130783E0
4.498394025E0,4.114793777E0,9.222576141E0,1.082525253E0
4.503398907E0,4.111200333E0,9.075244904E0,9.962825775E-1
4.508403790E0,4.058496475E0,8.932704926E0,8.393688202E-1
4.513408673E0,4.101617813E0,8.807233810E0,7.438430786E-1
4.518413556E0,4.248949051E0,8.591627121E0,5.294342041E-1
4.523448956E0,4.421434402E0,8.369132996E0,3.509597778E-1
4.528423321E0,4.613983154E0,8.179878235E0,1.356525421E-1
4.533458722E0,4.816413879E0,8.002601624E0,-1.362514496E-1
4.538463605E0,4.840370178E0,7.766931534E0,5.899238586E-2
4.543468487E0,5.030523300E0,7.651941299E0,3.066406250E-1
4.548473370E0,5.168272018E0,7.820833206E0,1.116962433E-1
4.553508771E0,5.007764816E0,7.899589539E0,-1.206798553E-1
4.558513653E0,4.920623779E0,7.924743652E0,-1.721858978E-1
4.563518536E0,4.985006332E0,8.039733887E0,-1.817684174E-1
4.568523419E0,4.957756042E0,8.142745972E0,-7.276725769E-2
4.573528302E0,4.869117737E0,8.203834534E0,-2.485466003E-2
4.578563702E0,4.703819275E0,8.152328491E0,7.576179504E-2
4.583568585E0,4.460962296E0,8.122383118E0,1.380481720E-1
4.588573468E0,4.293268204E0,8.088844299E0,2.015323639E-1
4.593578351E0,4.338785172E0,8.123580933E0,6.378364563E-2
4.598583234E0,4.489410400E0,8.106811523E0,-4.042625427E-2
4.603618634E0,4.573257446E0,8.066085815E0,-1.194820404E-1
4.608623517E0,4.739753723E0,8.084053040E0,-3.779106140E-1
4.613628400E0,4.971830368E0,8.098426819E0,-6.378364563E-1
4.618633282E0,5.205404282E0,8.131965637E0,-8.818912506E-1
4.623638165E0,5.453351974E0,8.333198547E0,-1.023233414E0
4.628673566E0,5.534503937E0,8.567670822E0,-1.018442154E0
4.633678448E0,5.425802231E0,8.816816330E0,-8.627262115E-1
4.638683331E0,5.261701584E0,9.053684235E0,-4.821205139E-1
4.643688214E0,4.913436890E0,9.195026398E0,7.576179504E-2
4.648693097E0,4.649917603E0,9.405542374E0,7.698955536E-1
4.653697980E0,4.420236588E0,9.629533768E0,1.464328766E0
4.658733380E0,4.292070389E0,9.756502151E0,2.351310730E0
4.663738263E0,4.251344681E0,9.911918640E0,3.183492661E0
4.668743146E0,4.177080154E0,1.001013947E1,4.048913956E0
4.673748028E0,3.934223175E0,9.849931717E0,4.832883835E0
4.678752911E0,3.408681870E0,9.262104034E0,5.396755219E0
4.683757794E0,3.454198837E0,8.926715851E0,5.861207962E0
4.688793194E0,3.969858170E0,8.867124557E0,6.360397339E0
4.693798077E0,4.503784180E0,9.003376007E0,6.726928711E0
4.698802960E0,4.930206299E0,9.271686554E0,6.717346191E0
4.703807843E0,5.249723434E0,9.557664871E0,6.470596313E0
4.708812726E0,5.429395676E0,9.675050735E0,5.992967606E0
4.713848126E0,5.630329132E0,9.653490067E0,5.297336578E0
4.718853009E0,5.712978363E0,9.423509598E0,4.643928528E0
4.723857892E0,5.545284271E0,9.063266754E0,4.096826553E0
4.728862775E0,5.302427292E0,8.728178024E0,3.590450287E0
4.733898175E0,5.189832687E0,8.439504623E0,3.286205292E0
4.738903058E0,5.161085129E0,8.252944946E0,3.160734177E0
4.743907941E0,5.164678574E0,8.133163452E0,3.317348480E0
4.748912823E0,5.385076523E0,8.094833374E0,3.579669952E0
4.753917706E0,5.594394684E0,7.975051880E0,3.842889786E0
4.758922589E0,5.720165253E0,7.835206985E0,4.057298660E0
4.763927472E0,5.774066925E0,7.625589371E0,4.227388382E0
4.768962872E0,5.774066925E0,7.395608902E0,4.303749084E0
4.773967755E0,5.541690826E0,7.112026215E0,4.368431091E0
4.778972638E0,5.317998886E0,6.826047897E0,4.423530579E0
4.783977521E0,5.061666489E0,6.567319870E0,4.545707703E0
4.788982403E0,4.946975708E0,6.353210449E0,4.699028015E0
4.793987286E0,4.973028183E0,6.180725098E0,4.769399643E0
4.799022687E0,4.952964783E0,6.130416870E0,4.817312241E0
4.804027569E0,4.907447815E0,6.148384094E0,4.865224838E0
4.809032452E0,4.931404114E0,6.204681396E0,4.921522141E0
4.814037335E0,4.791259766E0,6.145988464E0,4.965841293E0
4.819072735E0,4.785270691E0,6.064537048E0,5.030523300E0
4.824077618E0,4.833183289E0,6.015426636E0,5.164678574E0
4.829082501E0,4.734962463E0,5.992668152E0,5.231756210E0
4.834087384E0,4.727775574E0,5.968711853E0,5.334468842E0
4.839092267E0,4.546905518E0,5.893249512E0,5.329677582E0
4.844097150E0,4.568466187E0,5.830064774E0,5.346446991E0
4.849102032E0,4.861930847E0,5.824075699E0,5.503360748E0
4.854106915E0,4.869117737E0,5.683931351E0,5.402744293E0
4.859142316E0,4.743347168E0,5.560556412E0,5.224569321E0
4.864147198E0,5.012556076E0,5.547380447E0,5.240140915E0
4.869152081E0,5.247327805E0,5.525819778E0,5.274877548E0
4.874156964E0,5.312009811E0,5.519830704E0,5.165876389E0
4.879192364E0,5.295240402E0,5.608469009E0,5.101194382E0
4.884197247E0,5.103590012E0,5.701898575E0,5.062864304E0
4.889202130E0,4.990995407E0,5.780954361E0,4.946676254E0
4.894207013E0,5.109579086E0,5.907623291E0,4.831686020E0
4.899211896E0,5.267690659E0,6.090888977E0,4.721786499E0
4.904216778E0,5.296438217E0,6.202285767E0,4.798147202E0
4.909252179E0,5.403043747E0,6.350814819E0,4.810125351E0
4.914257062E0,5.498569489E0,6.477483749E0,4.856840134E0
4.919261944E0,5.697406769E0,6.637990952E0,5.023336411E0
4.924266827E0,5.988176346E0,6.953914642E0,5.206602097E0
4.929271710E0,6.312784195E0,7.231807709E0,5.335666656E0
4.934307110E0,6.528091431E0,7.475862503E0,5.530910492E0
4.939311993E0,6.735313416E0,7.679491043E0,5.791734695E0
4.944316876E0,6.950920105E0,7.943908691E0,6.056451797E0
4.949321759E0,7.145864487E0,8.217010498E0,6.289726257E0
4.954326642E0,7.315954208E0,8.464658737E0,6.459815979E0
4.959362042E0,7.518085480E0,8.610792160E0,6.540069580E0
4.964366925E0,7.666614532E0,8.724584579E0,6.643081665E0
4.969371808E0,7.928936005E0,8.912342072E0,6.730522156E0
4.974376691E0,8.074769974E0,8.978221893E0,6.722137451E0
4.979412091E0,8.218507767E0,9.063266754E0,6.664642334E0
4.984416974E0,8.386201859E0,9.162685394E0,6.523300171E0
4.989421857E0,8.462862015E0,9.210597992E0,6.350814819E0
4.994426739E0,8.504486084E0,9.101596832E0,6.022912979E0
4.999431622E0,8.458070755E0,9.010562897E0,5.814493179E0
5.004467023E0,8.621871948E0,8.987804413E0,5.520130157E0
5.009471905E0,8.859039307E0,8.938694000E0,5.122755051E0
5.014476788E0,8.920127869E0,8.796453476E0,4.903554916E0
5.019481671E0,8.930908203E0,8.650320053E0,4.730171204E0
5.024486554E0,8.881797791E0,8.486219406E0,4.524147034E0
5.029521954E0,8.885391235E0,8.415548325E0,4.378013611E0
5.034526837E0,8.946479797E0,8.367935181E0,4.308540344E0
5.039531720E0,9.034818649E0,8.322418213E0,4.150728226E0
5.044536603E0,9.062368393E0,8.312835693E0,4.065683365E0
5.049541485E0,9.019247055E0,8.242164612E0,3.944704056E0
5.054546368E0,9.006071091E0,8.148735046E0,3.886011124E0
5.059581769E0,9.014455795E0,7.999008179E0,3.914758682E0
5.064586652E0,9.104291916E0,7.927139282E0,3.884813309E0
5.069591534E0,9.198919296E0,7.901985168E0,3.812944412E0
5.074596417E0,9.207304001E0,7.856767654E0,3.799768448E0
5.079601300E0,9.147413254E0,7.814844131E0,3.716220856E0
5.084606183E0,9.123456955E0,7.693864822E0,3.692264557E0
5.089641583E0,9.155797958E0,7.624391556E0,3.631175995E0
5.094646466E0,8.972831726E0,7.592050552E0,3.662319183E0
5.099651349E0,8.727279663E0,7.486642838E0,3.732990265E0
5.104656232E0,8.520057678E0,7.475862503E0,3.791383743E0
5.109691632E0,8.259233475E0,7.396806717E0,3.754550934E0
5.114696515E0,8.013681412E0,7.235401154E0,3.701847076E0
5.119701398E0,7.919353485E0,7.167125702E0,3.772518158E0
5.124706280E0,7.724109650E0,7.072498322E0,3.756946564E0
5.129711163E0,7.428548813E0,6.945529938E0,3.661121368E0
5.134746564E0,7.236898422E0,6.830839157E0,3.574878693E0
5.139751446E0,6.985357285E0,6.715848923E0,3.584461212E0
5.144756329E0,6.794006348E0,6.729024887E0,3.691066742E0
5.149761212E0,6.652664185E0,6.689496994E0,3.688671112E0
5.154766095E0,6.540069580E0,6.610441208E0,3.656330109E0
5.159770978E0,6.449335098E0,6.608045578E0,3.626384735E0
5.164806378E0,6.178628922E0,6.590078354E0,3.688671112E0
5.169811261E0,5.950145721E0,6.530187607E0,3.584461212E0
5.174816144E0,5.836353302E0,6.525396347E0,3.530559540E0
5.179821027E0,5.625537872E0,6.466703415E0,3.657527924E0
5.184825909E0,5.333570480E0,6.398427963E0,3.767726898E0
5.189861310E0,5.135931015E0,6.360397339E0,3.847681046E0
5.194866193E0,4.948173523E0,6.376867294E0,3.856065750E0
5.199871075E0,4.774490356E0,6.358001709E0,3.919549942E0
5.204875958E0,4.645126343E0,6.431966782E0,4.090837479E0
5.209880841E0,4.645126343E0,6.584089279E0,4.266916275E0
5.214885724E0,4.619972229E0,6.846410751E0,4.435508728E0
5.219921124E0,4.463357925E0,7.114421844E0,4.612785339E0
5.224926007E0,4.377115250E0,7.314456940E0,4.848455429E0
5.229930890E0,4.464256287E0,7.602830887E0,4.985006332E0
5.234935773E0,4.537322998E0,7.807657242E0,5.002973557E0
5.239940655E0,4.642730713E0,8.024162292E0,5.145513535E0
5.244976056E0,4.737358093E0,8.232582092E0,5.467426300E0
5.249980939E0,4.768501282E0,8.364341736E0,5.722560883E0
5.254985821E0,4.821205139E0,8.443098068E0,5.732143402E0
5.259990704E0,4.829589844E0,8.398778915E0,5.685428619E0
5.264995587E0,4.756523132E0,8.409559250E0,5.484195709E0
5.270030987E0,4.649917603E0,8.328407288E0,5.162282944E0
5.275035870E0,4.521751404E0,8.203834534E0,4.737358093E0
5.280040753E0,4.408258438E0,8.177482605E0,4.330101013E0
5.285045636E0,4.235773087E0,8.167900085E0,3.960275650E0
5.290050519E0,4.203432083E0,8.090042114E0,3.409580231E0
5.295085919E0,4.349565506E0,8.164306641E0,2.739402771E0
5.300090802E0,4.493003845E0,8.244560242E0,2.066530228E0
5.305095685E0,4.560081482E0,8.327209473E0,1.605670929E0
5.310100568E0,4.622367859E0,8.376319885E0,1.267887115E0
5.315105450E0,4.788864136E0,8.377517700E0,1.101690292E0
5.320110333E0,4.869117737E0,8.393089294E0,1.002271652E0
5.325145734E0,4.884689331E0,8.333198547E0,8.345775604E-1
5.330150616E0,4.812820435E0,8.269714355E0,6.851501465E-1
5.335155499E0,4.779281616E0,8.175086975E0,4.887084961E-1
5.340160382E0,4.694236755E0,8.108009338E0,2.638187408E-1
5.345165265E0,4.520553589E0,7.996612549E0,1.236743927E-1
5.350200665E0,4.344774246E0,7.868745804E0,-8.234977722E-2
5.355205548E0,4.202234268E0,7.746568680E0,-2.569313049E-1
5.360210431E0,4.151926041E0,7.661523819E0,-2.796897888E-1
5.365215314E0,4.082452774E0,7.570489883E0,-2.892723083E-1
5.370220196E0,3.943805695E0,7.481851578E0,-2.653160095E-1
5.375225079E0,3.838397980E0,7.424356461E0,-2.856788635E-1
5.380229962E0,3.706638336E0,7.289302826E0,-2.737007141E-1
5.385234845E0,3.588054657E0,7.112026215E0,-2.713050842E-1
5.390270245E0,3.507801056E0,6.949123383E0,-2.964591980E-1
5.395275128E0,3.426649094E0,6.792509079E0,-2.557334900E-1
5.400280011E0,3.395505905E0,6.645177841E0,-1.673946381E-1
5.405284894E0,3.353582382E0,6.521802902E0,-1.817684174E-1
5.410289777E0,3.365560532E0,6.391241074E0,-1.913509369E-1
5.415325177E0,3.258955002E0,6.348419189E0,-1.626033783E-1
5.420330060E0,3.159536362E0,6.319671631E0,-1.350536346E-1
5.425334943E0,3.143964767E0,6.270561218E0,-6.797599792E-2
5.430339825E0,3.147558212E0,6.286132812E0,-1.886558533E-2
5.435344708E0,3.189481735E0,6.334045410E0,2.904701233E-2
5.440380109E0,3.224218369E0,6.423582077E0,9.253120422E-2
5.445384991E0,3.280515671E0,6.570913315E0,1.895542145E-1
5.450389874E0,3.348791122E0,6.697881699E0,2.707061768E-1
5.455394757E0,3.443418503E0,6.838026047E0,3.868942261E-1
5.460399640E0,3.480251312E0,6.998233795E0,4.827194214E-1
5.465404523E0,3.571285248E0,7.116817474E0,5.605773926E-1
5.470439923E0,3.682682037E0,7.253368378E0,5.857315063E-1
5.475444806E0,3.898288727E0,7.408784866E0,5.749511719E-1
5.480449689E0,4.099222183E0,7.503412247E0,5.078735352E-1
5.485454571E0,4.156717300E0,7.533357620E0,4.276199341E-1
5.490459454E0,4.224992752E0,7.607622147E0,3.150253296E-1
5.495494855E0,4.377115250E0,7.619600296E0,1.823673248E-1
5.500499737E0,4.471443176E0,7.620798111E0,1.467323303E-2
5.505504620E0,4.623565674E0,7.631578445E0,-1.063060760E-1
5.510509503E0,4.803237915E0,7.599237442E0,-2.557334900E-1
5.515514386E0,4.921821594E0,7.557313919E0,-3.970756531E-1
5.520549786E0,4.980215073E0,7.475862503E0,-5.611763000E-1
5.525554669E0,5.085622787E0,7.448312759E0,-6.342430115E-1
5.530559552E0,5.298833847E0,7.438730240E0,-7.860660553E-1
5.535564435E0,5.395856857E0,7.426752090E0,-8.435611725E-1
5.540569318E0,5.453351974E0,7.466279984E0,-7.501316071E-1
5.545604718E0,5.566844940E0,7.479455948E0,-7.468376160E-1
5.550609601E0,5.600383759E0,7.443521500E0,-6.725730896E-1
5.555614484E0,5.661472321E0,7.383630753E0,-6.150779724E-1
5.560619366E0,5.643505096E0,7.319248199E0,-5.503959656E-1
5.565624249E0,5.678241730E0,7.266544342E0,-4.437904358E-1
5.570629132E0,5.661472321E0,7.216236115E0,-4.318122864E-1
5.575664532E0,5.508152008E0,7.132389069E0,-3.970756531E-1
5.580669415E0,5.369504929E0,7.073696136E0,-4.102516174E-1
5.585674298E0,5.368307114E0,6.970684052E0,-4.773292542E-1
5.590679181E0,5.265295029E0,6.880847931E0,-5.384178162E-1
5.595684064E0,5.123952866E0,6.766157150E0,-5.899238586E-1
5.600719464E0,4.960151672E0,6.554143906E0,-6.246604919E-1
5.605724347E0,4.740951538E0,6.404417038E0,-6.737709045E-1
5.610729230E0,4.513366699E0,6.196296692E0,-7.360572815E-1
5.615764630E0,4.295663834E0,6.003448486E0,-6.953315735E-1
5.620769513E0,4.023759842E0,5.881570816E0,-7.049140930E-1
5.625774396E0,3.664714813E0,5.646799088E0,-6.689796448E-1
5.630779278E0,3.323637009E0,5.445566177E0,-7.049140930E-1
5.635784161E0,3.014600754E0,5.316501617E0,-6.953315735E-1
5.640789044E0,2.710655212E0,5.181148529E0,-6.150779724E-1
5.645824444E0,2.469894409E0,5.104488373E0,-5.456047058E-1
5.650829327E0,2.252191544E0,5.069751740E0,-4.413948059E-1
5.655834210E0,2.032991409E0,5.067356110E0,-3.599433899E-1
5.660839093E0,1.959924698E0,5.046993256E0,-1.817684174E-1
5.665843976E0,1.828464508E0,5.026630402E0,-6.887435913E-3
5.670879376E0,1.753002167E0,4.989498138E0,6.258583069E-2
5.675884259E0,1.738628387E0,4.936794281E0,1.655979156E-1
5.680889142E0,1.667957306E0,4.952365875E0,2.111148834E-1
5.685894025E0,1.532604218E0,4.971530914E0,2.766952515E-1
5.690898907E0,1.373594284E0,5.086521149E0,3.653335571E-1
5.695934308E0,1.276571274E0,5.219478607E0,4.156417847E-1
5.700939191E0,1.205900192E0,5.427598953E0,5.054779053E-1
5.705944073E0,1.082525253E0,5.601282120E0,6.276550293E-1
5.710948956E0,1.106481552E0,5.809701920E0,7.902584076E-1
5.715953839E0,1.119657516E0,5.973503113E0,9.555568695E-1
5.720958722E0,1.305318832E0,6.179527283E0,1.090909958E0
5.725994122E0,1.580516815E0,6.397230148E0,1.262197495E0
5.730999005E0,1.697902679E0,6.568517685E0,1.410427094E0
5.736003888E0,1.635616302E0,6.707464218E0,1.561351776E0
5.741008771E0,1.630825043E0,7.053333282E0,1.569736481E0
5.746013653E0,1.484691620E0,7.784898758E0,1.901231766E0
5.751049054E0,9.627437592E-1,8.730573654E0,2.480674744E0
5.756053937E0,6.192703247E-1,1.001253510E1,3.018194199E0
5.761058819E0,3.704242706E-1,1.179997444E1,3.650341034E0
5.766063702E0,9.612464905E-2,1.400485229E1,4.334892273E0
5.771068585E0,-1.611061096E-1,1.669963646E1,5.193426132E0
5.776103985E0,-4.114494324E-1,1.964805794E1,5.702198029E0
5.781108868E0,-5.968112946E-1,2.255096245E1,5.625537872E0
5.786113751E0,-3.276023865E-1,2.516549301E1,5.035314560E0
5.791118634E0,8.528442383E-1,2.729999924E1,3.966264725E0
5.796123517E0,2.765754700E0,2.873528099E1,2.132410049E0
5.801128400E0,5.246129990E0,2.916739273E1,1.826667786E-2
5.806163800E0,8.806335449E0,2.871132469E1,-2.320766449E0
5.811168683E0,1.191286850E1,2.738743973E1,-4.543910980E0
5.816173566E0,1.229946327E1,2.554010963E1,-6.149282455E0
5.821178448E0,1.000564766E1,2.291270256E1,-6.790712357E0
5.826183331E0,6.290025711E0,1.993194008E1,-6.387348175E0
5.831218732E0,3.145162582E0,1.740125656E1,-5.409332275E0
5.836223614E0,7.989425659E-1,1.565574074E1,-3.995611191E0
5.841228497E0,-4.569664001E-1,1.453638268E1,-2.677715302E0
5.846233380E0,-3.587455750E-1,1.369970894E1,-1.590698242E0
5.851238263E0,6.258583069E-2,1.310589218E1,-6.881446838E-1
5.856273663E0,4.539718628E-1,1.278996849E1,1.706886292E-2
5.861278546E0,8.576354980E-1,1.256238365E1,4.683456421E-1
5.866283429E0,1.353231430E0,1.224765778E1,8.154125214E-1
5.871288312E0,1.912311554E0,1.197455597E1,1.123250961E0
5.876293194E0,2.398324966E0,1.154603767E1,1.275074005E0
5.881298077E0,2.748985291E0,1.096300125E1,1.245428085E0
5.886333478E0,3.076887131E0,1.042548180E1,1.074140549E0
5.891338360E0,3.345197678E0,9.881074905E0,8.118190765E-1
5.896343243E0,3.352384567E0,9.161487579E0,6.013031006E-1
5.901348126E0,3.183492661E0,8.367935181E0,4.707412720E-1
5.906353009E0,2.999029160E0,7.581270218E0,3.545532227E-1
5.911388409E0,2.696281433E0,6.776937485E0,1.596088409E-1
5.916393292E0,2.385149002E0,6.004646301E0,-3.683280945E-2
5.921398175E0,2.094079971E0,5.272182465E0,-2.796897888E-1
5.926403058E0,1.848827362E0,4.587331772E0,-5.791435242E-1
5.931407941E0,1.673946381E0,3.822526932E0,-8.543415070E-1
5.936443341E0,1.609264374E0,3.136478424E0,-1.195718765E0
5.941448224E0,1.544582367E0,2.386945724E0,-1.508049011E0
5.946453107E0,1.525417328E0,1.741922379E0,-1.747612000E0
5.951457989E0,1.490680695E0,1.071445465E0,-1.928182602E0
5.956462872E0,1.534999847E0,6.872463226E-1,-2.032392502E0
5.961467755E0,1.500263214E0,3.722209930E-1,-2.266864777E0
5.966503155E0,1.308912277E0,-6.468200684E-2,-2.295612335E0
5.971508038E0,1.137624741E0,-3.830013275E-1,-2.257282257E0
5.976512921E0,9.498672485E-1,-5.998058319E-1,-2.270458221E0
5.981517804E0,9.127349854E-1,-7.564201355E-1,-2.296810150E0
5.986522687E0,8.480529785E-1,-9.444770813E-1,-2.391437531E0
5.991558087E0,8.109207153E-1,-1.075038910E0,-2.446537018E0
5.996562970E0,8.947677612E-1,-1.073841095E0,-2.542362213E0
6.001567853E0,8.875808716E-1,-1.150201797E0,-2.572307587E0
6.006572735E0,9.295043945E-1,-1.189729691E0,-2.487262726E0
6.011577618E0,1.157987595E0,-1.077434540E0,-2.409404755E0
6.016613019E0,1.466724396E0,-9.001579285E-1,-2.338733673E0
6.021617902E0,1.757793427E0,-6.498146057E-1,-2.195295334E0
6.026622784E0,2.028200150E0,-3.075389862E-1,-1.996458054E0
6.031627667E0,2.210268021E0,1.641006470E-1,-1.915006638E0
6.036632550E0,2.358797073E0,7.207851410E-1,-1.790433884E0
6.041637433E0,2.318071365E0,1.301425934E0,-1.637413025E0
6.046672833E0,2.119234085E0,1.797021866E0,-1.503257751E0
6.051677716E0,1.959026337E0,2.269859314E0,-1.325981140E0
6.056682599E0,1.828464508E0,2.704366684E0,-1.196916580E0
6.061687482E0,1.725452423E0,3.110126495E0,-1.060365677E0
6.066692364E0,1.747013092E0,3.617700577E0,-9.837055206E-1
6.071727765E0,1.781749725E0,4.143241882E0,-9.214191437E-1
6.076732648E0,1.834453583E0,4.788564682E0,-1.059167862E0
6.081737530E0,1.955133438E0,5.464731216E0,-1.223268509E0
6.086742413E0,2.130014420E0,6.352012634E0,-1.384674072E0
6.091747296E0,2.377962112E0,7.481851578E0,-1.636215210E0
6.096782696E0,2.760963440E0,8.697034836E0,-1.861104965E0
6.101787579E0,3.306867599E0,9.999359131E0,-2.143789291E0
6.106792462E0,4.195047379E0,1.143464088E1,-2.434558868E0
6.111797345E0,5.465030670E0,1.293460464E1,-2.629802704E0
6.116802228E0,6.867073059E0,1.444055748E1,-2.641780853E0
6.121807110E0,8.149034500E0,1.579588509E1,-2.539966583E0
6.126842511E0,9.093511581E0,1.711018753E1,-2.343524933E0
6.131847394E0,9.559162140E0,1.822595215E1,-2.082700729E0
6.136852277E0,9.565151215E0,1.912251663E1,-1.785642624E0
6.141857159E0,9.079137802E0,1.966123390E1,-1.658973694E0
6.146862042E0,8.067583084E0,1.980497169E1,-1.527214050E0
6.151897443E0,6.949722290E0,1.961691475E1,-1.564346313E0
6.156902325E0,6.101968765E0,1.918480301E1,-1.759290695E0
6.161907208E0,5.723758698E0,1.877544975E1,-2.055150986E0
6.166912091E0,5.619548798E0,1.852510643E1,-2.281238556E0
6.171916974E0,5.520130157E0,1.848917198E1,-2.459712982E0
6.176952374E0,5.338361740E0,1.844125938E1,-2.474086761E0
6.181957257E0,5.159887314E0,1.845563316E1,-2.286029816E0
6.186962140E0,4.943382263E0,1.839364624E1,-1.849126816E0
6.191967023E0,4.818809509E0,1.821277618E1,-1.290046692E0
6.196971905E0,4.889480591E0,1.801633453E1,-5.300331116E-1
6.202007306E0,4.876304626E0,1.777347755E1,3.126296997E-1
6.207012189E0,4.890678406E0,1.765728951E1,1.217878342E0
6.212017071E0,4.914634705E0,1.761656380E1,2.024606705E0
6.217021954E0,4.864326477E0,1.786331367E1,2.779829025E0
6.222026837E0,4.989797592E0,1.835292053E1,3.421558380E0
6.227031720E0,5.107183456E0,1.884132957E1,4.076463699E0
6.232067120E0,5.277273178E0,1.923391342E1,4.738555908E0
6.237072003E0,5.577625275E0,1.940160751E1,5.270086288E0
6.242076886E0,5.909420013E0,1.915845108E1,5.627933502E0
6.247081769E0,5.976497650E0,1.852151299E1,5.871988297E0
6.252086652E0,5.861507416E0,1.766567421E1,5.886362076E0
6.257122052E0,5.368307114E0,1.658105278E1,5.735736847E0
6.262126935E0,4.822402954E0,1.548924446E1,5.587207794E0
6.267131818E0,4.413049698E0,1.440941429E1,5.336864471E0
6.272136700E0,4.221399307E0,1.346733284E1,5.053281784E0
6.277141583E0,4.167497635E0,1.266180229E1,4.844861984E0
6.282176984E0,4.282487869E0,1.185387611E1,4.549301147E0
6.287181866E0,4.539718628E0,1.160233498E1,4.015375137E0
6.292186749E0,4.800842285E0,1.151609230E1,3.738979340E0
6.297191632E0,4.924217224E0,1.131875229E1,3.650341034E0
6.302196515E0,5.031721115E0,1.113428879E1,3.692264557E0
6.307201398E0,5.025732040E0,1.111991501E1,3.828516006E0
6.312236798E0,4.917030334E0,1.109356308E1,4.167497635E0
6.317241681E0,5.082029343E0,1.107439804E1,4.513366699E0
6.322246564E0,5.220975876E0,1.102049637E1,4.928709030E0
6.327251446E0,5.562053680E0,1.073930931E1,5.580020905E0
6.332259502E0,5.703395844E0,1.049016380E1,5.435085297E0
6.337294903E0,5.644702911E0,1.021616364E1,4.788564682E0
6.342299785E0,5.424604416E0,9.963424683E0,4.296562195E0
6.347304668E0,5.229360580E0,9.545686722E0,3.888406754E0
6.352309551E0,4.939788818E0,9.092014313E0,3.373645782E0
6.357314434E0,4.635543823E0,8.635946274E0,3.100843430E0
6.362349834E0,4.485816956E0,8.064888000E0,2.858884811E0
6.367354717E0,4.254938126E0,7.583665848E0,2.729820251E0
6.372359600E0,4.099222183E0,7.338413239E0,2.466300964E0
6.377364483E0,3.542537689E0,7.186290741E0,1.868890762E0
6.382369366E0,2.844810486E0,6.737409592E0,1.157987595E0
6.387374248E0,2.174333572E0,6.157966614E0,9.459743500E-1
6.392409649E0,1.593692780E0,5.489885330E0,9.495677948E-1
6.397414532E0,1.159185410E0,4.746641159E0,1.235845566E0
6.402419414E0,9.211196899E-1,4.198341370E0,1.463130951E0
6.407424297E0,1.068151474E0,3.588953018E0,1.640407562E0
6.412429180E0,1.401144028E0,2.968784332E0,1.848527908E0
6.417464580E0,1.648792267E0,2.548650742E0,2.217454910E0
6.422469463E0,1.753002167E0,2.138099670E0,2.151575089E0
6.427474346E0,1.792530060E0,1.725152969E0,2.074914932E0
6.432479229E0,1.818881989E0,1.377786636E0,2.076112747E0
6.437484112E0,1.903926849E0,1.102588654E0,2.042573929E0
6.442519512E0,1.947048187E0,8.929710388E-1,2.100069046E0
6.447524395E0,1.901531219E0,7.710933685E-1,2.052156448E0
6.452529278E0,1.839244843E0,5.782451630E-1,1.940759659E0
6.457534160E0,1.858409882E0,4.656505585E-1,1.880868912E0
6.462539043E0,1.776958466E0,3.997707367E-1,1.736232758E0
6.467543926E0,1.754199982E0,3.581466675E-1,1.550571442E0
6.472579326E0,1.724254608E0,3.710231781E-1,1.398448944E0
6.477584209E0,1.618846893E0,3.830013275E-1,1.278667450E0
6.482589092E0,1.532604218E0,4.500789642E-1,1.186735153E0
6.487593975E0,1.364011765E0,5.279369354E-1,1.099294662E0
6.492598858E0,1.175954819E0,6.848506927E-1,9.651393890E-1
6.497634258E0,9.507656097E-1,9.324989319E-1,9.028530121E-1
6.502639141E0,6.120834351E-1,1.219974518E0,8.729076385E-1
6.507644024E0,3.189182281E-1,1.568239212E0,8.453578949E-1
6.512648907E0,1.919498444E-1,1.966812134E0,8.465557098E-1
6.517653789E0,4.940986633E-2,2.363288879E0,8.753032684E-1
6.522689190E0,6.019020081E-2,2.740301132E0,9.268093109E-1
6.527694073E0,9.612464905E-2,3.108928680E0,1.004667282E0
6.532698955E0,2.614231110E-1,3.525468826E0,1.123250961E0
6.537703838E0,4.863128662E-1,3.938415527E0,1.149602890E0
6.542708721E0,7.630081177E-1,4.450780869E0,1.184339523E0
6.547713604E0,1.130437851E0,4.973926544E0,1.294239044E0
6.552749004E0,1.675144196E0,5.589303970E0,1.469120026E0
6.557753887E0,2.119234085E0,6.174736023E0,1.657176971E0
6.562758770E0,2.587280273E0,6.701475143E0,1.751804352E0
6.567763653E0,2.993040085E0,7.133586884E0,1.961122513E0
6.572768535E0,3.261350632E0,7.497423172E0,2.113245010E0
6.577803936E0,3.454198837E0,7.777711868E0,2.182718277E0
6.582808819E0,3.541339874E0,7.981040955E0,2.176729202E0
6.587813701E0,3.499416351E0,8.190658569E0,2.134805679E0
6.592818584E0,3.339208603E0,8.270912170E0,2.018617630E0
6.597853985E0,3.121206284E0,8.285285950E0,1.810197830E0
6.602858867E0,2.835227966E0,8.316429138E0,1.556560516E0
6.607863750E0,2.370775223E0,8.191856384E0,1.331371307E0
6.612868633E0,1.846431732E0,8.064888000E0,1.131635666E0
6.617873516E0,1.608066559E0,8.024162292E0,9.579524994E-1
6.622878399E0,1.488285065E0,8.195449829E0,8.824901581E-1
6.627883282E0,1.519428253E0,8.377517700E0,8.513469696E-1
6.632918682E0,1.693111420E0,8.683858871E0,9.028530121E-1
6.637923565E0,1.926685333E0,9.011760712E0,8.501491547E-1
6.642928448E0,2.310884476E0,9.363918304E0,8.321819305E-1
6.647933330E0,2.902305603E0,9.851129532E0,1.081327438E0
6.652938213E0,3.250570297E0,1.063150597E1,1.221471786E0
6.657973614E0,3.469470978E0,1.119777298E1,1.284656525E0
6.662978496E0,3.801265717E0,1.169816017E1,1.588901520E0
6.667983379E0,4.127969742E0,1.220094299E1,1.988672256E0
6.672988262E0,4.325609207E0,1.270013237E1,2.243806839E0
6.677993145E0,4.451379776E0,1.319333267E1,2.348915100E0
6.683028545E0,4.599609375E0,1.372486305E1,2.408805847E0
6.688033428E0,4.675071716E0,1.437377930E1,2.254587173E0
6.693038311E0,4.927810669E0,1.483942986E1,1.889253616E0
6.698043194E0,5.401845932E0,1.511103439E1,1.429592133E0
6.703048076E0,5.662670135E0,1.523560715E1,9.160289764E-1
6.708083477E0,5.641109467E0,1.547127724E1,2.695083618E-1
6.713088360E0,5.395856857E0,1.572521400E1,-3.252067566E-1
6.718093242E0,4.989797592E0,1.604832458E1,-7.585163116E-1
6.723098125E0,4.554092407E0,1.658344841E1,-8.279895782E-1
6.728103008E0,4.336389542E0,1.719762802E1,-6.593971252E-1
6.733107891E0,4.179475784E0,1.790643501E1,-3.587455750E-1
6.738143291E0,4.135156631E0,1.870956993E1,-1.051082611E-1
6.743148174E0,4.251344681E0,1.945880318E1,2.051258087E-1
6.748153057E0,4.362741470E0,2.008016968E1,5.090713501E-1
6.753157940E0,4.568466187E0,2.053144646E1,1.026227951E0
6.758162823E0,4.664291382E0,2.072070122E1,1.687122345E0
6.763198223E0,4.676269531E0,2.050509453E1,2.271356583E0
6.768203106E0,4.901458740E0,1.972112465E1,2.622016907E0
6.773207989E0,4.924217224E0,1.858859062E1,2.781026840E0
6.778212871E0,4.730171204E0,1.741682816E1,2.858884811E0
6.783217754E0,4.232179642E0,1.613696289E1,3.115217209E0
6.788222637E0,3.675495148E0,1.506072617E1,3.279018402E0
6.793258037E0,3.172712326E0,1.428514099E1,3.225416183E0
6.798262920E0,2.784919739E0,1.379912758E1,3.013402939E0
6.803267803E0,2.350412369E0,1.343978310E1,2.610038757E0
6.808272686E0,1.705089569E0,1.316218948E1,2.315376282E0
6.813277569E0,1.183141708E0,1.270612144E1,2.262672424E0
6.818312969E0,1.108877182E0,1.225125122E1,2.231828690E0
6.823317852E0,1.347242355E0,1.186345863E1,2.018617630E0
6.828322735E0,1.461933136E0,1.159874153E1,1.648792267E0
6.833327617E0,1.464328766E0,1.143344307E1,1.149602890E0
6.838332500E0,1.527812958E0,1.128521347E1,6.096878052E-1
6.843367901E0,1.711078644E0,1.115944290E1,8.893775940E-2
6.848372783E0,2.052156448E0,1.107679367E1,-4.186363220E-1
6.853377666E0,2.495048523E0,1.095341873E1,-8.759021759E-1
6.858382549E0,2.766952515E0,1.077524376E1,-1.309211731E0
6.863387432E0,3.030172348E0,1.049854851E1,-1.542785645E0
6.868392315E0,3.202657700E0,1.015866852E1,-1.612258911E0
6.873427715E0,3.263746262E0,9.767282486E0,-1.549972534E0
6.878432598E0,3.273328781E0,9.419916153E0,-1.498466492E0
6.883437481E0,3.308065414E0,9.026134491E0,-1.408630371E0
6.888442364E0,3.236196518E0,8.651517868E0,-1.281661987E0
6.893447246E0,3.127195358E0,8.318824768E0,-1.219675064E0
6.898482647E0,2.904701233E0,7.917556763E0,-1.049585342E0
6.903487530E0,2.728622437E0,7.498620987E0,-8.423633575E-1
6.908492412E0,2.653160095E0,7.131191254E0,-7.621097565E-1
6.913497295E0,2.532180786E0,6.741003036E0,-6.294517517E-1
6.918502178E0,2.439050674E0,6.363990784E0,-4.557685852E-1
6.923537578E0,2.376764297E0,6.030998230E0,-3.419761658E-1
6.928542461E0,2.358797073E0,5.722261429E0,-1.733837128E-1
6.933547344E0,2.295312881E0,5.459939957E0,-4.761314392E-2
6.938552227E0,2.218652725E0,5.163181305E0,3.892898560E-3
6.943557110E0,2.143190384E0,4.912837982E0,9.852027893E-2
6.948592510E0,2.082101822E0,4.677167892E0,1.620044708E-1
6.953597393E0,2.068925858E0,4.400472641E0,2.099170685E-1
6.958602276E0,2.074914932E0,4.126472473E0,1.883563995E-1
6.963607158E0,2.023408890E0,3.860857010E0,2.159061432E-1
6.968612041E0,1.979089737E0,3.543436050E0,2.087192535E-1
6.973616924E0,1.932674408E0,3.229907990E0,1.260700226E-1
6.978652325E0,1.881168365E0,2.923267365E0,8.175086975E-2
6.983657207E0,1.782947540E0,2.624113083E0,4.222297668E-2
6.988662090E0,1.724254608E0,2.334541321E0,-2.844810486E-2
6.993666973E0,1.671550751E0,2.129714966E0,-1.110973358E-1
6.998671856E0,1.572132111E0,1.936866760E0,-1.889553070E-1
7.003707256E0,1.465526581E0,1.699998856E0,-1.602077484E-1
7.008712139E0,1.360418320E0,1.552667618E0,-1.602077484E-1
7.013717022E0,1.270582199E0,1.435281754E0,-2.212963104E-1
7.018721905E0,1.202306747E0,1.450853348E0,-1.853618622E-1
7.023726787E0,1.086118698E0,1.486787796E0,-2.308788300E-1
7.028762188E0,9.366912842E-1,1.486787796E0,-2.868766785E-1
7.033767071E0,8.384704590E-1,1.658075333E0,-2.509422302E-1
7.038771953E0,7.342605591E-1,1.744318008E0,-2.593269348E-1
7.043776836E0,5.593795776E-1,1.835351944E0,-2.473487854E-1
7.048781719E0,4.530735016E-1,2.059043884E0,-2.033290863E-1
7.053786602E0,4.183368683E-1,2.430067062E0,-2.569313049E-1
7.058822002E0,6.324462891E-1,2.953212738E0,-4.210319519E-1
7.063826885E0,1.105283737E0,3.482347488E0,-6.174736023E-1
7.068831768E0,1.639209747E0,3.957580566E0,-8.651218414E-1
7.073836651E0,2.145586014E0,4.388494492E0,-1.121454239E0
7.078841533E0,2.545356750E0,4.775388718E0,-1.430191040E0
7.083876934E0,2.857986450E0,5.056575775E0,-1.700897217E0
7.088881817E0,2.949020386E0,5.249423981E0,-2.001249313E0
7.093886700E0,2.874755859E0,5.415620804E0,-2.245304108E0
7.098891582E0,2.657951355E0,5.461137772E0,-2.459712982E0
7.103896465E0,2.295312881E0,5.477907181E0,-2.577098846E0
7.108931866E0,1.941059113E0,5.580919266E0,-2.695682526E0
7.113936748E0,1.665561676E0,5.725854874E0,-2.815164566E0
7.118941631E0,1.473911285E0,5.802515030E0,-2.841516495E0
7.123946514E0,1.378385544E0,5.969909668E0,-2.872659683E0
7.128951397E0,1.341253281E0,6.165153503E0,-2.785219193E0
7.133956280E0,1.391561508E0,6.537374496E0,-2.674121857E0
7.138991680E0,1.449056625E0,7.035366058E0,-2.553142548E0
7.143996563E0,1.512241364E0,7.657930374E0,-2.448932648E0
7.149001446E0,1.594890594E0,8.364341736E0,-2.387844086E0
7.154006328E0,1.785343170E0,9.099201202E0,-2.315975189E0
7.159011211E0,2.010232925E0,9.928688049E0,-2.200086594E0
7.164046612E0,2.237817764E0,1.086987114E1,-2.044370651E0
7.169051494E0,2.553741455E0,1.187783241E1,-1.964117050E0
7.174056377E0,2.919075012E0,1.295376968E1,-1.893445969E0
7.179061260E0,3.274526596E0,1.397490692E1,-1.905424118E0
7.184066143E0,3.641956329E0,1.486697960E1,-1.998853683E0
7.189101543E0,4.114793777E0,1.574677467E1,-2.140195847E0
7.194106426E0,4.407060623E0,1.637173462E1,-2.415393829E0
7.199111309E0,4.471443176E0,1.651157951E1,-2.899011612E0
7.204116192E0,4.532531738E0,1.638491058E1,-3.402992249E0
7.209121075E0,4.180673599E0,1.570844460E1,-3.898588181E0
7.214125957E0,3.601230621E0,1.448008537E1,-4.337886810E0
7.219161358E0,3.134382248E0,1.322327805E1,-4.764308929E0
7.224166241E0,3.230207443E0,1.217459106E1,-5.017946243E0
7.229171123E0,3.718616486E0,1.158316994E1,-5.026330948E0
7.234176006E0,4.216608047E0,1.144062996E1,-5.027528763E0
7.239180889E0,4.676269531E0,1.162150002E1,-4.784372330E0
7.244216289E0,5.283262253E0,1.213985443E1,-4.305545807E0
7.249221172E0,5.790836334E0,1.284387016E1,-3.827917099E0
7.254226055E0,6.184617996E0,1.348649788E1,-3.203256607E0
7.259230938E0,6.704170227E0,1.391411781E1,-2.654956818E0
7.264235821E0,7.339910507E0,1.423722839E1,-2.207273483E0
7.269271221E0,7.872638702E0,1.448248100E1,-1.912611008E0
7.274276104E0,8.268815994E0,1.464897728E1,-1.626632690E0
7.279280987E0,8.787170410E0,1.476396751E1,-1.426597595E0
7.284285869E0,9.130643845E0,1.480109978E1,-1.331970215E0
7.289290752E0,9.200117111E0,1.466215324E1,-1.200510025E0
7.294295635E0,9.074346542E0,1.438455963E1,-1.097497940E0
7.299331035E0,8.971633911E0,1.387339211E1,-1.041200638E0
7.304335918E0,9.098302841E0,1.331071854E1,-1.079530716E0
7.309340801E0,8.998884201E0,1.255759239E1,-1.129838943E0
7.314345684E0,8.838676453E0,1.179997444E1,-1.110673904E0
7.319350567E0,8.959655762E0,1.112231064E1,-1.195718765E0
7.324385967E0,8.917732239E0,1.045662498E1,-1.256507874E0
7.329390850E0,8.886589050E0,9.920303345E0,-1.329574585E0
7.334395733E0,9.032423019E0,9.478609085E0,-1.430191040E0
7.339400616E0,9.049192429E0,9.027332306E0,-1.417015076E0
7.344405498E0,9.016851425E0,8.701826096E0,-1.414619446E0
7.349440899E0,9.172567368E0,8.516164780E0,-1.324783325E0
7.354445782E0,9.306722641E0,8.309242249E0,-1.241235733E0
7.359450664E0,9.780757904E0,8.298461914E0,-1.089113235E0
7.364455547E0,9.929286957E0,8.375122070E0,-8.507480621E-1
7.369460430E0,1.000205421E1,8.480230331E0,-7.001228333E-1
7.374465313E0,9.974803925E0,8.657506943E0,-6.450233459E-1
7.379500713E0,1.048597145E1,8.909946442E0,-7.348594666E-1
7.384505596E0,1.062940979E1,9.078838348E0,-7.657032013E-1
7.389510479E0,1.013022041E1,9.082431793E0,-7.501316071E-1
7.394515362E0,9.366613388E0,8.896770477E0,-7.657032013E-1
7.399520244E0,8.808731079E0,8.644330978E0,-1.024431229E0
7.404555645E0,8.510475159E0,8.244560242E0,-1.240037918E0
7.409560528E0,8.265222549E0,7.612413406E0,-1.364311218E0
7.414565410E0,7.914562225E0,7.029376984E0,-1.449356079E0
7.419570293E0,7.297986984E0,6.537374496E0,-1.407432556E0
7.424575176E0,6.726928711E0,6.142395020E0,-1.420608521E0
7.429610576E0,6.187013626E0,5.762987137E0,-1.394256592E0
7.434615459E0,5.780056000E0,5.435983658E0,-1.297233582E0
7.439620342E0,5.498569489E0,5.184741974E0,-1.269683838E0
7.444625225E0,5.244932175E0,4.958354950E0,-1.114267349E0
7.449630108E0,4.919425964E0,4.708311081E0,-9.944858551E-1
7.454634991E0,4.592422485E0,4.426824570E0,-9.453754425E-1
7.459670391E0,4.288476944E0,4.095329285E0,-8.998584747E-1
7.464675274E0,3.954586029E0,3.748262405E0,-8.555393219E-1
7.469680157E0,3.530559540E0,3.484743118E0,-8.196048737E-1
7.474685039E0,3.153547287E0,3.196369171E0,-7.501316071E-1
7.479689922E0,2.863975525E0,3.005916595E0,-6.581993103E-1
7.484725323E0,2.592071533E0,2.816961288E0,-5.312309265E-1
7.489730205E0,2.455820084E0,2.687597275E0,-4.473838806E-1
7.494735088E0,2.306093216E0,2.551046371E0,-3.647346497E-1
7.499739971E0,2.150377274E0,2.433660507E0,-2.940635681E-1
7.504744854E0,1.971902847E0,2.242309570E0,-1.961421967E-1
7.509780254E0,1.738628387E0,2.080604553E0,-1.530208588E-1
7.514785137E0,1.582912445E0,1.918899536E0,-1.146907806E-1
7.519790020E0,1.413122177E0,1.761087418E0,-1.087017059E-1
7.524794903E0,1.231054306E0,1.598184586E0,-8.953666687E-2
7.529799785E0,1.054975510E0,1.470018387E0,-1.015148163E-1
7.534835186E0,8.684158325E-1,1.308612823E0,-1.302623749E-1
7.539840069E0,6.707763672E-1,1.158885956E0,-2.105159760E-1
7.544844951E0,3.668308258E-1,1.055873871E0,-3.048439026E-1
7.549849834E0,9.612464905E-2,9.959831238E-1,-4.940986633E-1
7.554854717E0,-1.850624084E-1,9.504661560E-1,-6.749687195E-1
7.559859600E0,-3.635368347E-1,9.229164124E-1,-8.124179840E-1
7.564895000E0,-4.641532898E-1,9.432792664E-1,-9.082431793E-1
7.569899883E0,-5.491981506E-1,9.983787537E-1,-9.118366241E-1
7.574904766E0,-4.869117737E-1,1.155292511E0,-9.286060333E-1
7.579909649E0,-2.689094543E-1,1.414918900E0,-9.274082184E-1
7.584914532E0,-1.048088074E-2,1.640108109E0,-8.627262115E-1
7.589949932E0,1.727848053E-1,1.881767273E0,-8.723087311E-1
7.594954815E0,4.506778717E-1,2.229133606E0,-8.627262115E-1
7.599959698E0,7.103042603E-1,2.528287888E0,-7.872638702E-1
7.604964580E0,8.983612061E-1,2.890926361E0,-6.653862000E-1
7.609969463E0,1.116064072E0,3.307765961E0,-4.569664001E-1
7.615004864E0,1.395154953E0,3.817735672E0,-3.156242371E-1
7.620009746E0,1.829662323E0,4.434011459E0,-4.641532898E-2
7.625014629E0,2.264169693E0,5.097301483E0,2.802886963E-1
7.630019512E0,2.732215881E0,5.865999222E0,3.509597778E-1
7.635024395E0,3.409879684E0,6.875158310E0,6.192703247E-1
7.640029278E0,4.288476944E0,7.987030029E0,1.142416000E0
7.645064678E0,5.004171371E0,9.356731415E0,1.774263382E0
7.650069561E0,5.799221039E0,1.074170494E1,2.281837463E0
7.655074444E0,6.705368042E0,1.217219543E1,2.822950363E0
7.660079326E0,7.622295380E0,1.369731331E1,3.433536530E0
7.665084209E0,8.726081848E0,1.507030869E1,3.857263565E0
7.670089092E0,9.878978729E0,1.631423950E1,3.893198013E0
7.675124492E0,1.079351044E1,1.723236465E1,3.821329117E0
7.680129375E0,1.123999596E1,1.796003723E1,3.579669952E0
7.685134258E0,1.173080063E1,1.844125938E1,3.323337555E0
7.690139141E0,1.159664536E1,1.851073265E1,2.709457397E0
7.695174541E0,1.061264038E1,1.829302979E1,1.843736649E0
7.700179424E0,9.406141281E0,1.789805031E1,7.510299683E-1
7.705184307E0,8.037637711E0,1.712935257E1,-3.695259094E-1
7.710189190E0,7.432142258E0,1.642084503E1,-1.077135086E0
7.715194073E0,7.925342560E0,1.598963165E1,-1.494873047E0
7.720198955E0,8.511672974E0,1.562220192E1,-1.698501587E0
7.725234356E0,8.839874268E0,1.536976242E1,-1.646995544E0
7.730239239E0,8.779983521E0,1.505593491E1,-1.426597595E0
7.735244121E0,8.618278503E0,1.464179039E1,-1.110673904E0
7.740249004E0,8.472444534E0,1.417015076E1,-8.938694000E-1
7.745253887E0,8.246057510E0,1.355716896E1,-7.564201355E-1
7.750289287E0,8.132265091E0,1.298371506E1,-6.845512390E-1
7.755294170E0,7.974452972E0,1.240576935E1,-7.740879059E-1
7.760299053E0,7.598339081E0,1.177002907E1,-9.669361115E-1
7.765303936E0,7.093160629E0,1.108038712E1,-1.127443314E0
7.770308819E0,6.617927551E0,1.027485657E1,-1.333168030E0
7.775344219E0,5.997758865E0,9.270488739E0,-1.613456726E0
7.780349102E0,5.353933334E0,8.413152695E0,-1.955732346E0
7.785353985E0,4.792457581E0,7.760942459E0,-2.053953171E0
7.790358867E0,4.390291214E0,7.398004532E0,-1.867094040E0
7.795363750E0,4.174684525E0,7.407587051E0,-1.503257751E0
7.800368633E0,4.047716141E0,7.492631912E0,-1.103487015E0
7.805404033E0,3.950992584E0,7.472269058E0,-6.378364563E-1
7.810408916E0,3.794078827E0,7.473466873E0,-1.997356415E-1
7.815413799E0,3.691066742E0,7.430345535E0,2.254886627E-1
7.820418682E0,3.341604233E0,7.313259125E0,4.336090088E-1
7.825423565E0,2.823249817E0,7.044948578E0,7.091064453E-1
7.830458965E0,2.427072525E0,6.781728745E0,1.331371307E0
7.835463848E0,2.217454910E0,6.699079514E0,2.089288712E0
7.840468731E0,2.094079971E0,6.731420517E0,2.666336060E0
7.845473614E0,1.939861298E0,6.794904709E0,3.268238068E0
7.850478496E0,1.642803192E0,7.059322357E0,3.700649261E0
7.855513897E0,1.617649078E0,7.522577286E0,4.378013611E0
7.860518780E0,1.925487518E0,8.054107666E0,5.498569489E0
7.865523662E0,1.766178131E0,8.601209641E0,6.447837830E0
7.870528545E0,2.015024185E0,9.498971939E0,9.633426666E0
7.875533428E0,2.427072525E0,1.049854851E1,1.447439575E1
7.880538311E0,2.303697586E0,1.124089432E1,1.634059143E1
7.885573711E0,2.219850540E0,1.208235931E1,1.452230835E1
7.890578594E0,2.475883484E0,1.305558395E1,1.101001549E1
7.895583477E0,3.024183273E0,1.386620522E1,7.751659393E0
7.900588360E0,3.806056976E0,1.434982300E1,5.575229645E0
7.905593242E0,4.678665161E0,1.458788872E1,3.635967255E0
7.910628643E0,5.572834015E0,1.487656212E1,2.003046036E0
7.915633526E0,6.607147217E0,1.519009018E1,1.054975510E0
7.920638408E0,7.154249191E0,1.513379288E1,4.479827881E-1
7.925643291E0,7.101545334E0,1.485619926E1,-1.167869568E-2
7.930648174E0,6.688598633E0,1.449326134E1,-1.146907806E-1
7.935683575E0,6.173837662E0,1.394735718E1,-4.491806030E-3
7.940688457E0,5.859111786E0,1.350446510E1,5.174560547E-1
7.945693340E0,5.623142242E0,1.304480362E1,1.203504562E0
7.950698223E0,5.520130157E0,1.260790062E1,1.865297318E0
7.955703106E0,5.472217560E0,1.256358147E1,2.653160095E0
7.960707989E0,5.216184616E0,1.278397942E1,3.328128815E0
7.965712871E0,4.969734192E0,1.269414330E1,3.794977188E0
7.970748272E0,5.095205307E0,1.263065910E1,4.066881180E0
7.975753155E0,4.942184448E0,1.258993340E1,4.191453934E0
7.980758037E0,5.145513535E0,1.256238365E1,3.621593475E0
7.985762920E0,5.620746613E0,1.262706566E1,2.696281433E0
7.990798321E0,6.049264908E0,1.276601219E1,1.725452423E0
7.995803203E0,5.982187271E0,1.287740898E1,1.125646591E0
8.000808086E0,6.019319534E0,1.317656326E1,4.336090088E-1
8.005812969E0,6.091188431E0,1.364580727E1,-1.841640472E-1
8.010817852E0,6.244508743E0,1.401443481E1,-7.372550964E-1
8.015853252E0,6.321168900E0,1.447289848E1,-1.237642288E0
8.020858135E0,6.687400818E0,1.480229759E1,-1.523620605E0
8.025863018E0,6.708961487E0,1.474360466E1,-1.607467651E0
8.030867901E0,6.546058655E0,1.454955864E1,-1.730842590E0
8.035872783E0,6.278047562E0,1.426477814E1,-1.810796738E0
8.040877666E0,5.974102020E0,1.383625984E1,-1.688919067E0
8.045913067E0,5.712978363E0,1.339097214E1,-1.499664307E0
8.050917950E0,5.518932343E0,1.297293472E1,-1.216081619E0
8.055922832E0,5.359922409E0,1.255040550E1,-7.597141266E-1
8.060927715E0,5.296438217E0,1.226322937E1,-4.413948059E-1
8.065932598E0,5.192228317E0,1.193383026E1,-2.545356750E-1
8.070967998E0,5.098798752E0,1.155322456E1,-1.051082611E-1
8.075972881E0,5.187437057E0,1.112590408E1,5.090713501E-3
8.080977764E0,5.393461227E0,1.055125237E1,1.835651398E-1
8.085982647E0,5.583614349E0,9.899042130E0,3.054428101E-1
8.090987530E0,5.529712677E0,9.160289764E0,2.506427765E-1
8.096022930E0,5.365911484E0,8.268516541E0,1.991367340E-1
8.101027813E0,5.212591171E0,7.387523651E0,3.078384399E-1
8.106032696E0,4.975423813E0,6.412801743E0,1.787738800E-1
8.111037578E0,4.667884827E0,5.464731216E0,-3.204154968E-2
8.116042461E0,4.537322998E0,4.473539352E0,-3.180198669E-1
8.121047344E0,4.405862808E0,3.525468826E0,-7.037162781E-1
8.126082744E0,4.009386063E0,2.488759995E0,-8.615283966E-1
8.131087627E0,3.548526764E0,1.579019547E0,-1.275672913E0
8.136092510E0,3.160734177E0,8.429622650E-1,-1.756895065E0
8.141097393E0,2.908294678E0,1.844635010E-1,-2.177328110E0
8.146102276E0,2.648368835E0,-5.734539032E-1,-3.096651077E0
8.151137676E0,2.449831009E0,-1.253213882E0,-4.534328461E0
8.156142559E0,2.206674576E0,-1.934471130E0,-6.398128510E0
8.161116924E0,1.744617462E0,-2.808277130E0,-8.794656754E0
8.166152325E0,9.807109833E-1,-3.591348648E0,-1.022544670E1
8.171157207E0,2.051258087E-1,-4.091735840E0,-1.029821396E1
8.176192608E0,-2.737007141E-1,-4.138450623E0,-8.804239273E0
8.181197491E0,-2.976570129E-1,-3.529062271E0,-5.985181808E0
8.186202373E0,-2.940635681E-1,-2.775936127E0,-3.109827042E0
8.191207256E0,-2.425575256E-1,-2.135704041E0,-8.639240265E-1
8.196212139E0,-1.479301453E-1,-1.632921219E0,7.950496674E-1
8.201217022E0,-2.964591980E-2,-1.322687149E0,1.818582535E0
8.206252422E0,-1.107978821E-1,-1.194520950E0,2.326156616E0
8.211257305E0,3.982734680E-2,-1.087017059E0,2.572906494E0
8.216262188E0,1.260700226E-1,-1.078632355E0,2.639984131E0
8.221267071E0,2.218952179E-1,-1.027126312E0,2.650764465E0
8.226271953E0,2.039279938E-1,-9.971809387E-1,2.519004822E0
8.231307354E0,2.063236237E-1,-9.875984192E-1,2.338134766E0
8.236312237E0,1.644001007E-1,-9.121360779E-1,2.125223160E0
8.241317119E0,4.102516174E-2,-6.510124207E-1,1.888055801E0
8.246322002E0,1.467323303E-2,-3.051433563E-1,1.705089569E0
8.251326885E0,1.763782501E-1,-6.348419189E-2,1.584110260E0
8.256362285E0,4.015674591E-1,8.145141602E-2,1.405635834E0
8.261367168E0,5.725555420E-1,1.401443481E-1,1.228658676E0
8.266372051E0,6.755676270E-1,3.494625092E-1,1.187932968E0
8.271376934E0,7.845687866E-1,6.057949066E-1,1.192724228E0
8.276381817E0,9.855022430E-1,1.059467316E0,1.330173492E0
8.281386700E0,1.237043381E0,1.786241531E0,1.369701385E0
8.286422100E0,1.428693771E0,2.807378769E0,1.345745087E0
8.291426983E0,1.469120026E0,4.462759018E0,1.290645599E0
8.296431866E0,1.307714462E0,6.971881866E0,1.275074005E0
8.301436748E0,8.935699463E-1,1.049615288E1,1.163976669E0
8.306472149E0,6.983261108E-1,1.500442886E1,1.255010605E0
8.311477032E0,1.286153793E0,1.990918159E1,1.877275467E0
8.316481914E0,3.574878693E0,2.487711906E1,3.097249985E0
8.321486797E0,1.065336609E1,3.020529938E1,4.056100845E0
8.326491680E0,2.122138786E1,3.520797348E1,4.567268372E0
8.331496563E0,3.299021912E1,3.875979614E1,4.321716309E0
8.336531963E0,3.720742798E1,3.926736832E1,2.577697754E0
8.341536846E0,3.073114014E1,3.731013870E1,1.548175812E-1
8.346541729E0,2.105010033E1,3.307107162E1,-1.817983627E0
8.351546612E0,1.460256195E1,2.777643013E1,-2.462108612E0
8.356551494E0,1.218087959E1,2.302379990E1,-2.107854843E0
8.361586895E0,1.094922638E1,1.934051895E1,-1.296035767E0
8.366591778E0,9.682537079E0,1.654032707E1,-8.196048737E-1
8.371596660E0,8.357454300E0,1.462382317E1,-4.066581726E-1
8.376601543E0,7.194974899E0,1.341582680E1,-1.841640472E-1
8.381606426E0,6.393037796E0,1.280434227E1,9.013557434E-2
8.386611309E0,5.988176346E0,1.216740417E1,5.737533569E-1
8.391646709E0,5.879474640E0,1.152926826E1,1.112470627E0
8.396651592E0,5.586009979E0,1.144182777E1,1.795824051E0
8.401656475E0,5.244932175E0,1.136666489E1,2.486663818E0
8.406661358E0,5.097600937E0,1.112231064E1,3.274227142E0
8.411666241E0,5.214986801E0,1.096419907E1,3.980638504E0
8.416701641E0,5.696208954E0,1.073930931E1,4.569664001E0
8.421706524E0,6.075616837E0,1.034672546E1,4.949071884E0
8.426711407E0,6.117540359E0,9.758897781E0,5.107183456E0
8.431716289E0,5.806407928E0,9.030925751E0,4.807729721E0
8.436721172E0,5.358724594E0,8.243362427E0,4.199838638E0
8.441756573E0,4.887084961E0,7.368358612E0,3.535350800E0
8.446761455E0,4.311235428E0,6.475088120E0,2.810972214E0
8.451766338E0,3.658725739E0,5.603677750E0,2.197092056E0
8.456771221E0,3.072095871E0,4.745443344E0,1.634418488E0
8.461776104E0,2.577697754E0,3.943206787E0,1.228658676E0
8.466780987E0,2.256982803E0,3.231105804E0,8.693141937E-1
8.471816387E0,1.937465668E0,2.585783005E0,6.228637695E-1
8.476821270E0,1.684726715E0,1.973999023E0,3.593444824E-1
8.481826153E0,1.499065399E0,1.444864273E0,1.751804352E-1
8.486831035E0,1.264593124E0,9.648399353E-1,4.461860657E-2
8.491835918E0,1.149602890E0,6.513118744E-1,-1.757793427E-1
8.496871319E0,9.807109833E-1,3.329925537E-1,-3.240089417E-1
8.501876201E0,8.097229004E-1,3.593444824E-3,-2.928657532E-1
8.506881084E0,6.324462891E-1,-2.404613495E-1,-2.653160095E-1
8.511885967E0,4.791259766E-1,-5.255413055E-1,-2.344722748E-1
8.516890850E0,3.752155304E-1,-7.013206482E-1,-1.649990082E-1
8.521926250E0,2.626209259E-1,-8.594322205E-1,-7.636070251E-2
8.526931133E0,2.530384064E-1,-9.241142273E-1,-2.485466003E-2
8.531936016E0,2.734012604E-1,-9.289054871E-1,6.258583069E-2
8.536940899E0,2.566318512E-1,-9.432792664E-1,1.164875031E-1
8.541945782E0,2.865772247E-1,-9.145317078E-1,2.218952179E-1
8.546950664E0,2.997531891E-1,-8.833885193E-1,2.566318512E-1
8.551986065E0,2.853794098E-1,-8.522453308E-1,3.258056641E-1
8.556990948E0,2.853794098E-1,-8.402671814E-1,3.509597778E-1
8.561995830E0,2.398624420E-1,-8.031349182E-1,3.617401123E-1
8.567000713E0,2.458515167E-1,-7.731895447E-1,3.677291870E-1
8.572005596E0,2.015323639E-1,-7.887611389E-1,3.713226318E-1
8.577040996E0,2.039279938E-1,-7.648048401E-1,4.036636353E-1
8.582045879E0,1.284656525E-1,-7.588157654E-1,4.527740479E-1
8.587050762E0,1.164875031E-1,-7.899589539E-1,4.671478271E-1
8.592055645E0,7.576179504E-2,-7.995414734E-1,5.414123535E-1
8.597060528E0,7.486343384E-3,-7.648048401E-1,5.869293213E-1
8.602095928E0,-5.000877380E-2,-7.300682068E-1,6.001052856E-1
8.607100811E0,-1.862602234E-1,-6.929359436E-1,5.557861328E-1
8.612105694E0,-4.246253967E-1,-5.447063446E-1,5.869293213E-1
8.617110576E0,-6.986255646E-1,-2.751979828E-1,5.653686523E-1
8.622115459E0,-8.208026886E-1,-1.149902344E-1,6.036987305E-1
8.627150860E0,-8.998584747E-1,-1.437377930E-2,6.468200684E-1
8.632155742E0,-1.002870560E0,1.545181274E-1,6.731719971E-1
8.637160625E0,-1.153495789E0,3.485641479E-1,7.103042603E-1
8.642165508E0,-1.349937439E0,5.710582733E-1,8.381710052E-1
8.647170391E0,-1.803609848E0,1.402940750E0,1.007062912E0
8.652175274E0,-4.042325974E0,5.183544159E0,1.243032455E0
8.657210674E0,-6.293918610E0,9.774469376E0,2.611236572E0
8.662215557E0,-7.596242905E0,1.416056824E1,4.822103500E0
8.667220440E0,-7.311462402E0,1.825469971E1,6.776039124E0
8.672225323E0,-5.514739990E0,2.180532265E1,8.274805069E0
8.677230205E0,-2.792406082E0,2.399462891E1,8.358352661E0
8.682265606E0,2.410602570E-1,2.496545792E1,6.637092590E0
8.687270489E0,3.667110443E0,2.530443954E1,3.945901871E0
8.692275371E0,7.721714020E0,2.530563736E1,8.920726776E-1
8.697280254E0,1.532454491E1,2.598180389E1,-1.061563492E0
8.702285137E0,2.647799873E1,2.742457199E1,-3.682083130E0
8.707290020E0,3.650490570E1,2.900688553E1,-1.006973076E1
8.712325420E0,3.954196930E1,2.954680061E1,-1.587793541E1
8.717330303E0,2.970640945E1,2.698736954E1,-1.753840637E1
8.722335186E0,1.354788589E1,2.284083366E1,-1.645258713E1
8.727340069E0,5.326383591E0,1.922792435E1,-1.523051643E1
8.732344951E0,5.692615509E0,1.619685364E1,-1.273337173E1
8.737380352E0,7.957683563E0,1.453398705E1,-1.053059006E1
8.742385235E0,8.988103867E0,1.372246742E1,-8.661998749E0
8.747390117E0,9.224073410E0,1.298131943E1,-6.990747452E0
8.752395000E0,9.361822128E0,1.224645996E1,-5.544685364E0
8.757399883E0,9.361822128E0,1.138463211E1,-4.418140411E0
8.762435283E0,9.099500656E0,1.038026428E1,-3.118211746E0
8.767440166E0,8.438905716E0,9.257312775E0,-2.392635345E0
8.772445049E0,7.438131332E0,7.449510574E0,-2.061140060E0
8.777449932E0,7.236898422E0,5.395257950E0,-3.323936462E0
8.782454815E0,8.141847610E0,3.726701736E0,-6.370578766E0
8.787459698E0,8.249650955E0,2.477979660E0,-9.228265762E0
8.792495098E0,5.839946747E0,1.973999023E0,-9.586112976E0
8.797499981E0,2.759765625E0,2.232727051E0,-7.735488892E0
8.802504864E0,1.675144196E0,2.578596115E0,-5.290748596E0
8.807540264E0,1.647594452E0,2.898113251E0,-3.320343018E0
8.812545147E0,1.532604218E0,2.980762482E0,-2.068326950E0
8.817550030E0,1.195119858E0,2.887332916E0,-1.208894730E0
8.822554912E0,8.791961670E-1,2.809774399E0,-5.216484070E-1
8.827559795E0,5.917205811E-1,2.717542648E0,-1.266689301E-1
8.832564678E0,3.871936798E-1,2.722333908E0,2.898712158E-1
8.837569561E0,1.655979156E-1,2.749883652E0,5.797424316E-1
8.842604961E0,-7.366561890E-2,2.833730698E0,7.591152191E-1
8.847609844E0,-3.120307922E-1,3.084972382E0,8.705120087E-1
8.852614727E0,-5.992069244E-1,3.542238235E0,1.165174484E0
8.857619610E0,-1.098396301E0,4.216308594E0,1.820978165E0
8.862624492E0,-1.731740952E0,5.196720123E0,2.498641968E0
8.867629375E0,-2.103961945E0,6.689496994E0,3.347293854E0
8.872664776E0,-2.196193695E0,8.567670822E0,4.679862976E0
8.877669658E0,-1.597585678E0,1.063150597E1,6.049264908E0
8.882674541E0,-3.731193542E-1,1.282470512E1,7.456996918E0
8.887679424E0,1.962320328E0,1.526435471E1,8.548805237E0
8.892684307E0,6.124727249E0,1.787169838E1,9.159391403E0
8.897719707E0,1.071325684E1,2.029936981E1,9.282766342E0
8.902724590E0,1.386051559E1,2.208531189E1,8.005296707E0
8.907729473E0,1.515804863E1,2.319987869E1,6.171442032E0
8.912734356E0,1.426747322E1,2.352179146E1,4.524147034E0
8.917739239E0,1.138852501E1,2.299744797E1,2.348915100E0
8.922774639E0,8.720092773E0,2.197391510E1,5.438079834E-1
8.927779522E0,7.027280807E0,2.088240623E1,-4.869117737E-1
8.932784405E0,5.962123871E0,1.962529945E1,-5.192527771E-1
8.937789287E0,5.780056000E0,1.840083313E1,3.653335571E-1
8.942794170E0,6.651466370E0,1.724793625E1,4.024957657E0
8.947799053E0,7.961277008E0,1.682660484E1,7.863954544E0
8.952834453E0,9.449262619E0,1.718085861E1,8.159814835E0
8.957839336E0,9.513645172E0,1.739766312E1,8.359550476E0
8.962844219E0,9.015653610E0,1.731621170E1,8.508079529E0
8.967849102E0,8.984809875E0,1.776988411E1,7.024885178E0
8.972853985E0,9.006071091E0,1.773993874E1,5.250921249E0
8.977889385E0,9.016851425E0,1.784774208E1,3.908769608E0
8.982894268E0,8.754829407E0,1.830979919E1,2.879247665E0
8.987899151E0,7.538448334E0,1.837687683E1,1.988672256E0
8.992904033E0,5.826770782E0,1.805945587E1,1.987474442E0
8.997908916E0,4.796051025E0,1.762973976E1,3.073293686E0
9.002944317E0,4.082452774E0,1.685655022E1,3.505405426E0
9.007918682E0,4.072870255E0,1.609264374E1,3.252965927E0
9.012954082E0,4.316026688E0,1.547007942E1,2.809774399E0
9.017958965E0,4.594818115E0,1.498765945E1,2.496246338E0
9.022963848E0,4.869117737E0,1.444175529E1,1.946748734E0
9.027968731E0,5.066457748E0,1.374043465E1,1.119657516E0
9.033004131E0,5.421010971E0,1.300407791E1,1.620044708E-1
9.038009014E0,5.845935822E0,1.232791138E1,-7.992420197E-1
9.043013897E0,6.367883682E0,1.161910439E1,-1.694908142E0
9.048018780E0,6.682609558E0,1.088304710E1,-2.561527252E0
9.053023662E0,6.692192078E0,1.017903137E1,-3.112222672E0
9.058059063E0,6.294816971E0,9.590005875E0,-3.577873230E0
9.063063946E0,5.534503937E0,8.667089462E0,-3.692863464E0
9.068068828E0,4.998182297E0,7.641160965E0,-3.880620956E0
9.073073711E0,4.615180969E0,6.604452133E0,-4.002798080E0
9.078078594E0,4.446588516E0,5.553369522E0,-4.013578415E0
9.083113994E0,4.353158951E0,4.565771103E0,-4.123777390E0
9.088118877E0,4.262125015E0,3.658426285E0,-4.324710846E0
9.093123760E0,4.135156631E0,2.566617966E0,-5.033517838E0
9.098128643E0,4.339982986E0,1.327777863E0,-7.080583572E0
9.103133526E0,4.337587357E0,-6.989250183E-1,-1.197066307E1
9.108168926E0,4.010583878E0,-3.409280777E0,-1.906352425E1
9.113173809E0,3.549724579E0,-5.812995911E0,-2.256024551E1
9.118178692E0,3.861156464E0,-6.921573639E0,-1.933752441E1
9.123183575E0,4.970632553E0,-6.376867294E0,-1.344667053E1
9.128188457E0,5.310811996E0,-5.277872086E0,-8.690746307E0
9.133193340E0,4.284883499E0,-4.201635361E0,-4.883790970E0
9.138228741E0,2.610038757E0,-3.108928680E0,-8.255939484E-1
9.143233623E0,1.249021530E0,-2.226438522E0,2.546554565E0
9.148238506E0,7.234802246E-1,-1.776359558E0,5.038908005E0
9.153243389E0,5.557861328E-1,-1.583810806E0,6.605949402E0
9.158248272E0,5.006866455E-1,-1.540689468E0,7.324039459E0
9.163283672E0,4.791259766E-1,-1.569437027E0,7.440227509E0
9.168288555E0,6.863479614E-1,-1.608964920E0,6.548454285E0
9.173293438E0,1.114866257E0,-1.539491653E0,5.297336578E0
9.178298321E0,1.053777695E0,-1.420907974E0,4.211816788E0
9.183303203E0,8.528442383E-1,-1.281961441E0,3.437129974E0
9.188338604E0,7.067108154E-1,-1.231653214E0,2.807378769E0
9.193343487E0,5.857315063E-1,-1.163377762E0,2.261774063E0
9.198348369E0,4.899063110E-1,-9.959831238E-1,1.818582535E0
9.203353252E0,4.315128326E-1,-8.211021423E-1,1.427196503E0
9.208358135E0,3.728199005E-1,-6.450233459E-1,1.120855331E0
9.213363018E0,3.524570465E-1,-4.560680389E-1,7.782802582E-1
9.218398418E0,3.824024200E-1,-2.632198334E-1,6.647872925E-1
9.223403301E0,3.955783844E-1,-1.554164886E-1,6.036987305E-1
9.228408184E0,4.051609039E-1,-7.905578613E-2,6.096878052E-1
9.233413067E0,4.255237579E-1,-1.317596436E-2,6.228637695E-1
9.238417950E0,4.327106476E-1,8.264923096E-2,6.647872925E-1
9.243453350E0,4.863128662E-1,2.371673584E-1,7.710933685E-1
9.248458233E0,5.953140259E-1,5.003871918E-1,9.016551971E-1
9.253463116E0,7.067108154E-1,8.190059662E-1,1.174757004E0
9.258467998E0,8.420639038E-1,1.299030304E0,1.515834808E0
9.263472881E0,9.950847626E-1,1.962020874E0,1.816186905E0
9.268508282E0,1.084920883E0,2.713949203E0,2.203081131E0
9.273513164E0,1.265790939E0,3.490732193E0,2.547752380E0
9.278518047E0,1.612857819E0,4.310935974E0,2.846906662E0
9.283522930E0,1.870388031E0,5.106884003E0,2.942731857E0
9.288527813E0,2.230630875E0,5.948348999E0,2.918775558E0
9.293532696E0,2.628005981E0,6.860784531E0,2.776235580E0
9.298568096E0,3.108030319E0,7.750162125E0,2.619621277E0
9.303572979E0,3.646747589E0,8.629957199E0,2.404014587E0
9.308577862E0,4.020166397E0,9.599588394E0,2.249795914E0
9.313582744E0,4.580444336E0,1.089981651E1,1.862901688E0
9.318587627E0,5.058073044E0,1.225963593E1,1.439174652E0
9.323623028E0,5.375494003E0,1.374402809E1,9.459743500E-1
9.328627910E0,5.853122711E0,1.540210342E1,-1.886558533E-2
9.333632793E0,7.073995590E0,1.737370682E1,-9.705295563E-1
9.338637676E0,9.053983688E0,1.925906754E1,-1.943754196E0
9.343642559E0,1.192245102E1,2.100787735E1,-3.064310074E0
9.348677959E0,1.519637871E1,2.268511772E1,-4.220800400E0
9.353682842E0,1.782288742E1,2.405811310E1,-5.256311417E0
9.358687725E0,1.882006836E1,2.509362411E1,-6.168447495E0
9.363692608E0,1.812204170E1,2.554250526E1,-6.383754730E0
9.368697491E0,1.610851479E1,2.548980141E1,-6.329853058E0
9.373702373E0,1.364251328E1,2.497504044E1,-5.712379456E0
9.378737774E0,1.157748032E1,2.446147728E1,-4.747539520E0
9.383742657E0,1.051681519E1,2.407727814E1,-3.513191223E0
9.388747539E0,1.003439522E1,2.365714455E1,-2.331546783E0
9.393752422E0,9.780757904E0,2.330169296E1,-1.270881653E0
9.398757305E0,9.843044281E0,2.309926224E1,-2.353706360E-1
9.403792705E0,9.481603622E0,2.286239433E1,5.677642822E-1
9.408797588E0,8.664993286E0,2.263001823E1,1.443965912E0
9.413802471E0,8.460466385E0,2.263361168E1,1.855714798E0
9.418807354E0,8.198144913E0,2.230211639E1,2.491455078E0
9.423812237E0,9.779560089E0,2.116479111E1,2.463905334E0
9.428847637E0,1.159784317E1,2.034129333E1,1.883264542E0
9.433852520E0,1.150441360E1,1.970675087E1,1.173559189E0
9.438857403E0,1.081027985E1,1.867842674E1,2.171039581E-1
9.443862285E0,1.001642799E1,1.781300545E1,-3.707237244E-1
9.448867168E0,9.466032028E0,1.681702232E1,-1.028024673E0
9.453872051E0,9.243238449E0,1.569287300E1,-1.662567139E0
9.458907451E0,9.059972763E0,1.428514099E1,-1.823972702E0
9.463912334E0,8.601509094E0,1.270492363E1,-1.697303772E0
9.468917217E0,8.138254166E0,1.116543198E1,-1.413421631E0
9.473922100E0,7.467777252E0,9.800821304E0,-6.342430115E-1
9.478926983E0,6.682609558E0,8.256538391E0,3.270034790E-1
9.483962383E0,6.172639847E0,6.986255646E0,1.871585846E-1
9.488967266E0,5.899837494E0,5.921997070E0,-7.013206482E-1
9.493972149E0,5.294042587E0,4.574155807E0,-1.956930161E0
9.498977032E0,3.874332428E0,2.363288879E0,-4.613384247E0
9.503981914E0,2.030595779E0,9.372901917E-1,-7.136880875E0
9.509017315E0,5.761489868E-1,9.636421204E-1,-7.525871277E0
9.514022198E0,-2.006340027E-1,1.269084930E0,-6.613735199E0
9.519027080E0,-2.689094543E-1,1.174457550E0,-5.841444016E0
9.524031963E0,-3.551521301E-1,6.728725433E-1,-5.101793289E0
9.529036846E0,-5.384178162E-1,2.551345825E-1,-4.204030991E0
9.534041729E0,-6.734714508E-1,5.989074707E-3,-3.272430420E0
9.539077129E0,-7.034168243E-1,-2.440547943E-1,-2.447734833E0
9.544082012E0,-6.902408600E-1,-4.979915619E-1,-1.882665634E0
9.549086895E0,-6.315479279E-1,-6.393337250E-1,-1.360717773E0
9.554091778E0,-5.800418854E-1,-6.929359436E-1,-9.274082184E-1
9.559096660E0,-5.372200012E-1,-7.719917297E-1,-5.671653748E-1
9.564132061E0,-5.372200012E-1,-8.606300354E-1,-3.036460876E-1
9.569136944E0,-5.800418854E-1,-9.828071594E-1,2.566318512E-1
9.574141826E0,-5.716571808E-1,-1.051082611E0,5.749511719E-1
9.579146709E0,-4.761314392E-1,-9.313011169E-1,6.683807373E-1
9.584151592E0,-3.443717957E-1,-9.456748962E-1,8.381710052E-1
9.589186992E0,-2.772941589E-1,-9.037513733E-1,1.220273972E0
9.594191875E0,-3.611412048E-1,-9.864006042E-1,1.951539993E0
9.599196758E0,-3.635368347E-1,-1.160982132E0,2.539367676E0
9.604201641E0,-3.467674255E-1,-1.235246658E0,2.414794922E0
9.609206524E0,-2.856788635E-1,-1.334665298E0,2.741798401E0
9.614211407E0,-2.473487854E-1,-1.389764786E0,3.469470978E0
9.619246807E0,-2.725028992E-2,-1.553865433E0,6.805685043E0
9.624251690E0,3.991718292E-1,-1.903327942E0,1.211020851E1
9.629256573E0,3.871936798E-1,-2.360593796E0,1.466963959E1
9.634261455E0,3.560504913E-1,-2.680110931E0,1.428544044E1
9.639266338E0,-3.299980164E-1,-2.817859650E0,1.098845482E1
9.644301739E0,-2.748985291E-1,-2.573804855E0,7.612712860E0
9.649306621E0,-2.281837463E-1,-2.373769760E0,5.420711517E0
9.654311504E0,-6.782627106E-1,-2.263570786E0,4.449882507E0
9.659316387E0,-9.525623322E-1,-2.096176147E0,4.054903030E0
9.664351787E0,-1.199012756E0,-1.776359558E0,3.809350967E0
9.669356670E0,-1.564046860E0,-1.259202957E0,3.440723419E0
9.674361553E0,-1.738927841E0,-5.890254974E-1,2.978666306E0
9.679366436E0,-1.701795578E0,2.012329102E-1,2.256982803E0
9.684371319E0,-1.499664307E0,1.170864105E0,1.387668610E0
9.689376201E0,-1.542785645E0,1.666460037E0,6.480178833E-1
9.694411602E0,-1.674245834E0,2.017120361E0,1.706886292E-2
9.699416485E0,-2.070423126E0,2.570211411E0,-2.401618958E-1
9.704421367E0,-3.605123520E0,4.805334091E0,-4.413948059E-1
9.709426250E0,-5.405738831E0,7.828020096E0,-3.659324646E-1
9.714431133E0,-6.605051041E0,1.144661903E1,-4.797248840E-1
9.719466533E0,-7.141372681E0,1.530508041E1,-2.245903015E-2
9.724471416E0,-7.104240417E0,1.951390266E1,1.354129791E0
9.729476299E0,-6.338237762E0,2.362959480E1,3.007413864E0
9.734481182E0,-4.651414871E0,2.681997490E1,4.342079163E0
9.739486065E0,-1.859907150E0,2.882631493E1,5.857614517E0
9.744490948E0,2.168344498E0,2.950727272E1,7.012907028E0
9.749526348E0,6.409807205E0,2.885506248E1,6.890729904E0
9.754531231E0,1.050723267E1,2.785428810E1,5.539295197E0
9.759536114E0,1.844545174E1,2.769617653E1,3.555713654E0
9.764540996E0,2.902066040E1,2.869215965E1,1.620044708E0
9.769545879E0,3.255331421E1,2.936263657E1,3.982734680E-2
9.774550762E0,2.446806526E1,2.844331360E1,-2.041975021E0
9.779586162E0,1.123041344E1,2.636869812E1,-3.708435059E0
9.784591045E0,3.468273163E0,2.504690933E1,-4.436107635E0
9.789595928E0,-5.689620972E-3,2.402696991E1,-4.555889130E0
9.794600811E0,-1.107978821E0,2.287077904E1,-3.829114914E0
9.799605694E0,1.017843246E0,2.240033722E1,-3.829114914E0
9.804641094E0,3.467075348E0,2.237638092E1,-2.954111099E0
9.809645977E0,5.404241562E0,2.273782158E1,-1.837148666E0
9.814650860E0,6.281641006E0,2.277854729E1,-1.099893570E0
9.819655742E0,6.411005020E0,2.240752411E1,-5.168571472E-1
9.824660625E0,6.383455276E0,2.165679359E1,-2.760963440E-1
9.829696026E0,6.483772278E0,2.052066612E1,-3.970756531E-1
9.834700908E0,6.519706726E0,1.923391342E1,-9.837055206E-1
9.839705791E0,6.667037964E0,1.788607216E1,-1.983282089E0
9.844710674E0,6.821556091E0,1.667807579E1,-3.132585526E0
9.849715557E0,6.871864319E0,1.572641182E1,-4.376216888E0
9.854750957E0,7.283613205E0,1.486578178E1,-6.154073715E0
9.859755840E0,7.448911667E0,1.360987282E1,-8.208326340E0
9.864760723E0,7.622295380E0,1.207277679E1,-1.026856804E1
9.869765606E0,7.617504120E0,1.023053741E1,-1.117591286E1
9.874770489E0,7.593547821E0,8.398778915E0,-1.029102707E1
9.879775371E0,8.436510086E0,7.325237274E0,-8.855745316E0
9.884810772E0,9.374998093E0,6.229835510E0,-7.398902893E0
9.889815655E0,9.240842819E0,4.926013947E0,-5.831861496E0
9.894820537E0,8.709312439E0,3.724306107E0,-3.863851547E0
9.899825420E0,7.744472504E0,2.563024521E0,-1.365509033E0
9.904830303E0,5.808803558E0,1.492776871E0,1.484691620E0
9.909865703E0,3.661121368E0,5.950145721E-1,4.002199173E0
9.914870586E0,2.294115067E0,-1.449356079E-1,5.421909332E0
9.919875469E0,1.445163727E0,-8.103218079E-1,5.672252655E0
9.924880352E0,1.325681686E0,-1.266389847E0,4.489410400E0
9.929885235E0,1.479900360E0,-1.620943069E0,2.757369995E0
9.934920635E0,1.260999680E0,-1.857810974E0,1.174757004E0
9.939925518E0,1.071744919E0,-2.027900696E0,-9.283065796E-3
9.944930401E0,9.675350189E-1,-2.162954330E0,-5.551872253E-1
9.949935283E0,8.636245728E-1,-2.173734665E0,-8.387699127E-1
9.954940166E0,6.887435913E-1,-2.117736816E0,-8.830890656E-1
9.959945049E0,3.836002350E-1,-2.086593628E0,-7.956485748E-1
9.964980450E0,3.285007477E-1,-2.047065735E0,-5.360221863E-1
9.969985332E0,2.135105133E-1,-2.024307251E0,-1.973400116E-1
9.974990215E0,1.871585846E-1,-1.938064575E0,1.128940582E-1
9.979995098E0,2.159061432E-1,-1.906921387E0,3.689270020E-1
9.984999981E0,2.278842926E-1,-1.886558533E0,5.306320190E-1
9.990035381E0,2.901706696E-1,-1.839843750E0,6.156768799E-1
9.995040264E0,2.985553741E-1,-1.790733337E0,6.144790649E-1
1.000004515E1,3.764133453E-1,-1.685325623E0,6.528091431E-1
1.000505003E1,3.081378937E-1,-1.595788956E0,6.587982178E-1
1.001005491E1,3.081378937E-1,-1.492776871E0,6.839523315E-1
1.001509031E1,3.812046051E-1,-1.362215042E0,6.815567017E-1
1.002009520E1,3.991718292E-1,-1.172960281E0,5.881271362E-1
1.002510008E1,4.159412384E-1,-9.911918640E-1,5.306320190E-1
1.003010496E1,3.680286407E-1,-7.396507263E-1,4.731369019E-1
1.003510984E1,3.129291534E-1,-4.920024872E-1,4.395980835E-1
1.004011473E1,2.242908478E-1,-2.656154633E-1,4.372024536E-1
1.004515013E1,1.500263214E-1,-6.468200684E-2,4.563674927E-1
1.005015501E1,1.200809479E-1,9.462738037E-2,3.749160767E-1
1.005515989E1,1.260700226E-1,1.605072021E-1,3.641357422E-1
1.006016478E1,2.027301788E-1,2.287826538E-1,4.012680054E-1
1.006516966E1,2.698078156E-1,3.090362549E-1,5.006866455E-1
1.007020506E1,3.440723419E-1,4.548702240E-1,5.869293213E-1
1.007520994E1,3.368854523E-1,5.674648285E-1,6.168746948E-1
1.008021482E1,2.865772247E-1,7.459392548E-1,7.174911499E-1
1.008521971E1,2.542362213E-1,9.875984192E-1,8.537425995E-1
1.009022459E1,3.740177155E-1,1.425699234E0,8.669185638E-1
1.009525999E1,5.186538696E-1,2.277046204E0,8.729076385E-1
1.010026487E1,6.108856201E-1,3.529062271E0,8.489513397E-1
1.010526976E1,7.438430786E-1,5.196720123E0,8.537425995E-1
1.011027464E1,8.396682739E-1,7.253368378E0,9.327983856E-1
1.011527952E1,3.488636017E-1,9.953842163E0,9.471721649E-1
1.012028441E1,4.183368683E-1,1.328676224E1,9.962825775E-1
1.012531980E1,1.090909958E0,1.702274704E1,1.241834641E0
1.013032469E1,2.181520462E0,2.058774376E1,1.649990082E0
1.013532957E1,4.648719788E0,2.375656319E1,1.763483047E0
1.014033445E1,8.962051392E0,2.639624786E1,1.403240204E0
1.014533934E1,1.604143715E1,2.845409393E1,6.264572144E-1
1.015037474E1,2.261354828E1,2.983786964E1,-9.911918640E-2
1.015537962E1,2.583028030E1,3.091410637E1,-1.066354752E0
1.016038450E1,2.394491959E1,3.116534805E1,-1.961721420E0
1.016538939E1,1.870867157E1,3.011905670E1,-3.071496964E0
1.017039427E1,1.395873642E1,2.855800438E1,-4.127370834E0
1.017542967E1,1.124838066E1,2.699814987E1,-4.570262909E0
1.018043455E1,1.027635384E1,2.470223808E1,-4.408557892E0
1.018543943E1,9.815494537E0,2.269110680E1,-3.778806686E0
1.019044432E1,8.832687378E0,2.140195847E1,-2.990045547E0
1.019544920E1,8.032846451E0,2.051707268E1,-2.417789459E0
1.020045408E1,7.324338913E0,2.029457855E1,-1.936567307E0
1.020548948E1,7.282415390E0,2.002626801E1,-1.199312210E0
1.021049437E1,6.998533249E0,1.967560768E1,-4.917030334E-1
1.021549925E1,6.097177505E0,1.928661728E1,8.055305481E-2
1.022050413E1,5.321592331E0,1.881377983E1,4.431915283E-1
1.022550901E1,4.983808517E0,1.821996307E1,1.979389191E-1
1.023054441E1,4.828392029E0,1.731980515E1,-3.216133118E-1
1.023554930E1,5.158689499E0,1.643132591E1,-7.372550964E-1
1.024055418E1,5.854320526E0,1.574437904E1,-1.184938431E0
1.024555906E1,6.394235611E0,1.516733170E1,-1.606269836E0
1.025056395E1,6.298410416E0,1.444534874E1,-1.758092880E0
1.025559935E1,6.204980850E0,1.340175247E1,-1.693710327E0
1.026060423E1,6.046869278E0,1.227281189E1,-1.557159424E0
1.026560911E1,5.747714996E0,1.113309097E1,-1.369102478E0
1.027061399E1,5.653087616E0,1.003529358E1,-1.225664139E0
1.027561888E1,5.388669968E0,8.990200043E0,-9.369907379E-1
1.028065428E1,4.906250000E0,7.995414734E0,-4.677467346E-1
1.028565916E1,4.323213577E0,7.041355133E0,-3.934822083E-1
1.029066404E1,3.802463531E0,6.227439880E0,-3.431739807E-1
1.029566893E1,3.396703720E0,5.483896255E0,-2.976570129E-1
1.030067381E1,3.121206284E0,4.842466354E0,-3.264045715E-1
1.030567869E1,2.871162415E0,4.271408081E0,-3.695259094E-1
1.031071409E1,2.691490173E0,3.715921402E0,-6.821556091E-1
1.031571898E1,2.539367676E0,3.210742950E0,-1.269683838E0
1.032072386E1,2.434259415E0,2.724729538E0,-1.733238220E0
1.032572874E1,2.280939102E0,2.289024353E0,-2.198888779E0
1.033073362E1,2.233026505E0,1.823373795E0,-2.651363373E0
1.033576902E1,2.234224319E0,1.312206268E0,-2.870264053E0
1.034077391E1,2.118036270E0,8.597316742E-1,-2.905000687E0
1.034577879E1,1.858409882E0,4.009685516E-1,-2.810373306E0
1.035078367E1,1.489482880E0,-4.911041260E-2,-2.596263885E0
1.035578856E1,1.107679367E0,-4.345073700E-1,-2.283634186E0
1.036079344E1,7.498321533E-1,-8.055305481E-1,-1.974897385E0
1.036582884E1,5.342254639E-1,-1.100193024E0,-1.567939758E0
1.037083372E1,2.925662994E-1,-1.242433548E0,-1.113069534E0
1.037583860E1,1.536197662E-1,-1.309511185E0,-5.611763000E-1
1.038084349E1,1.296634674E-1,-1.237642288E0,-4.761314392E-2
1.038584837E1,9.133338928E-2,-1.126544952E0,4.228286743E-1
1.039088377E1,6.019020081E-2,-1.089412689E0,8.848857880E-1
1.039588865E1,4.581642151E-2,-1.040302277E0,1.251117706E0
1.040089354E1,-8.085250854E-3,-1.025928497E0,1.689517975E0
1.040589842E1,-1.096000671E-1,-1.108577728E0,2.176729202E0
1.041090330E1,-2.102165222E-1,-1.223268509E0,2.532180786E0
1.041593870E1,-4.940986633E-1,-1.332269669E0,3.118810654E0
1.042094358E1,-7.082080841E-1,-1.460435867E0,3.645549774E0
1.042594847E1,-7.285709381E-1,-1.575426102E0,4.248949051E0
1.043095335E1,-7.740879059E-1,-1.745216370E0,5.742923737E0
1.043595823E1,-8.998584747E-1,-1.817085266E0,6.754478455E0
1.044096312E1,-1.076835632E0,-1.915306091E0,6.978170395E0
1.044599852E1,-1.205001831E0,-1.921295166E0,6.508926392E0
1.045100340E1,-1.406234741E0,-1.904525757E0,5.798921585E0
1.045600828E1,-1.522422791E0,-1.848228455E0,5.168272018E0
1.046101316E1,-1.744916916E0,-1.773963928E0,4.507377625E0
1.046601805E1,-2.080005646E0,-1.614953995E0,3.971055984E0
1.047105345E1,-2.890626907E0,-1.422105789E0,3.770122528E0
1.047605833E1,-4.095928192E0,-1.278367996E0,3.762935638E0
1.048106321E1,-4.880197525E0,-9.660377502E-1,3.775812149E0
1.048606810E1,-5.357826233E0,-3.458690643E-1,3.679088593E0
1.049107298E1,-5.612661362E0,2.479476929E-1,3.419162750E0
1.049610838E1,-5.673749924E0,6.848506927E-1,3.179899216E0
1.050111326E1,-5.422508240E0,1.001972198E0,2.822950363E0
1.050611814E1,-4.495998383E0,1.198413849E0,2.481872559E0
1.051112303E1,-3.454498291E0,1.354129791E0,1.761386871E0
1.051612791E1,-4.277996063E0,4.673574448E0,9.435787201E-1
