"Time (s)","Gyroscope x (rad/s)","Gyroscope y (rad/s)","Gyroscope z (rad/s)"
5.186082100E-2,8.811950684E-2,-2.586174011E-1,5.189704895E-1
5.686570400E-2,8.811950684E-2,-2.821159363E-1,5.444717407E-1
6.187058700E-2,1.030731201E-1,-3.108215332E-1,5.743789673E-1
6.687547000E-2,1.264381409E-1,-2.575492859E-1,5.966758728E-1
7.188035300E-2,1.403236389E-1,-1.340484619E-1,6.126976013E-1
7.688523500E-2,1.360511780E-1,1.188278198E-2,6.244468689E-1
8.189011800E-2,1.148223877E-1,1.216316223E-1,6.276512146E-1
8.689500100E-2,7.530212402E-2,1.524734497E-1,6.030845642E-1
9.189988400E-2,3.271102905E-2,1.130867004E-1,5.403327942E-1
9.693528400E-2,-9.880065918E-3,2.897262573E-2,4.646301270E-1
1.019401670E-1,-5.674362183E-2,-8.184432983E-2,3.974723816E-1
1.069450500E-1,-1.174926758E-1,-2.012062073E-1,3.400611877E-1
1.119499330E-1,-2.037429810E-1,-3.215026855E-1,3.005409241E-1
1.169548160E-1,-3.060150146E-1,-4.216384888E-1,2.686309814E-1
1.219596980E-1,-4.114913940E-1,-5.016136169E-1,2.440643311E-1
1.269950990E-1,-5.105590820E-1,-5.632972717E-1,2.206993103E-1
1.319999820E-1,-6.032180786E-1,-5.996131897E-1,2.004051208E-1
1.370048640E-1,-6.862640381E-1,-6.122970581E-1,1.738357544E-1
1.420402650E-1,-7.576942444E-1,-5.900001526E-1,1.428604126E-1
1.470451480E-1,-8.152389526E-1,-5.495452881E-1,1.301765442E-1
1.520500300E-1,-8.653068542E-1,-5.281829834E-1,1.333808899E-1
1.570549130E-1,-9.057617188E-1,-5.239105225E-1,1.449966431E-1
1.620597960E-1,-9.335327148E-1,-5.164337158E-1,1.620864868E-1
1.670646790E-1,-9.536933899E-1,-5.037498474E-1,1.813125610E-1
1.721000790E-1,-9.654426575E-1,-4.781150818E-1,2.078819275E-1
1.771049620E-1,-9.601020813E-1,-4.291152954E-1,2.228355408E-1
1.821098450E-1,-9.313964844E-1,-3.801155090E-1,2.303123474E-1
1.871147280E-1,-8.770561218E-1,-3.247070312E-1,2.345848083E-1
1.921196100E-1,-8.002853394E-1,-2.735710144E-1,2.335166931E-1
1.971244930E-1,-7.097625732E-1,-2.299118042E-1,2.281761169E-1
2.021598940E-1,-6.117630005E-1,-1.777076721E-1,2.217674255E-1
2.071647770E-1,-5.180358887E-1,-9.572982788E-2,2.142906189E-1
2.121696590E-1,-4.275131226E-1,6.195068359E-2,2.164268494E-1
2.171745420E-1,-3.327178955E-1,1.929283142E-1,2.281761169E-1
2.221794250E-1,-2.516746521E-1,1.929283142E-1,2.547454834E-1
2.271843080E-1,-2.101516724E-1,1.449966431E-1,2.878570557E-1
2.322197080E-1,-1.877212524E-1,2.025413513E-1,2.729034424E-1
2.372551090E-1,-1.536750793E-1,3.379249573E-1,2.174949646E-1
2.422599910E-1,-1.185607910E-1,4.603576660E-1,1.642227173E-1
2.472648740E-1,-1.100158691E-1,5.328559875E-1,1.301765442E-1
2.522697570E-1,-1.313781738E-1,5.476760864E-1,1.098823547E-1
2.572746400E-1,-1.782417297E-1,5.466079712E-1,9.386062622E-2
2.623100400E-1,-2.399253845E-1,5.594253540E-1,8.010864258E-2
2.673149230E-1,-3.113555908E-1,5.988121033E-1,7.156372070E-2
2.723198060E-1,-3.763771057E-1,6.702423096E-1,7.797241211E-2
2.773246890E-1,-4.337882996E-1,7.735824585E-1,9.813308716E-2
2.823295710E-1,-4.754447937E-1,8.886718750E-1,1.248359680E-1
2.873344540E-1,-4.934692383E-1,1.013240814E0,1.492691040E-1
2.923698550E-1,-4.818534851E-1,1.163444519E0,1.663589478E-1
2.973747370E-1,-4.551506042E-1,1.353034973E0,1.823806763E-1
3.023796200E-1,-4.136276245E-1,1.599102020E0,2.025413513E-1
3.073845030E-1,-3.614234924E-1,1.897373199E0,2.271080017E-1
3.123893860E-1,-2.931976318E-1,2.210597992E0,2.408599854E-1
3.174247860E-1,-2.122879028E-1,2.489643097E0,2.356529236E-1
3.224296690E-1,-1.239013672E-1,2.695255280E0,2.121543884E-1
3.274345520E-1,-3.324508667E-2,2.849731445E0,1.663589478E-1
3.324394350E-1,5.514144897E-2,2.994594574E0,1.141548157E-1
3.374443180E-1,1.520729065E-1,3.175773621E0,5.661010742E-2
3.424797180E-1,2.670288086E-1,3.391933441E0,6.542205811E-3
3.474846010E-1,3.917312622E-1,3.632659912E0,-2.857208252E-2
3.524894840E-1,5.344581604E-1,3.913974762E0,-4.993438721E-2
3.574943660E-1,7.006835938E-1,4.266586304E0,-6.795883179E-2
3.624992490E-1,8.892059326E-1,4.685153961E0,-9.359359741E-2
3.675041320E-1,1.090545654E0,5.148582458E0,-1.212310791E-1
3.725395320E-1,1.294021606E0,5.667419434E0,-1.425933838E-1
3.775444150E-1,1.504974365E0,6.245803833E0,-1.500701904E-1
3.825492980E-1,1.726474762E0,6.865844727E0,-1.586151123E-1
3.875541810E-1,1.969337463E0,7.462387085E0,-1.787757874E-1
3.925590640E-1,2.234630585E0,8.036499023E0,-1.980018616E-1
3.975944640E-1,2.509536743E0,8.608608246E0,-2.128219604E-1
4.025993470E-1,2.788581848E0,9.217967987E0,-2.065467834E-1
4.076042300E-1,3.070831299E0,9.798488617E0,-1.777076721E-1
4.126091120E-1,3.372306824E0,1.014041901E1,-1.712989807E-1
4.176139950E-1,3.689804077E0,1.009355545E1,-2.054786682E-1
4.226188780E-1,3.921985626E0,9.808101654E0,-2.746391296E-1
4.276542780E-1,3.990211487E0,9.399013519E0,-3.940010071E-1
4.326591610E-1,3.923053741E0,8.883380890E0,-5.729103088E-1
4.376945620E-1,3.737735748E0,8.222885132E0,-7.423400879E-1
4.426994440E-1,3.420238495E0,7.491092682E0,-8.552932739E-1
4.477043270E-1,3.007946014E0,6.683597565E0,-9.308624268E-1
4.527092100E-1,2.514743805E0,5.847396851E0,-9.734535217E-1
4.577140930E-1,1.983222961E0,5.067672729E0,-9.745216370E-1
4.627189760E-1,1.494293213E0,4.367790222E0,-9.233856201E-1
4.677238590E-1,1.116046906E0,3.774452209E0,-8.360671997E-1
4.727287410E-1,8.540916443E-1,3.330249786E0,-7.530212402E-1
4.777641420E-1,6.782531738E-1,3.009548187E0,-7.081604004E-1
4.827690250E-1,5.695724487E-1,2.757072449E0,-6.901359558E-1
4.877739070E-1,5.184364319E-1,2.594051361E0,-6.550216675E-1
4.927787900E-1,5.046844482E-1,2.440643311E0,-5.707740784E-1
4.977836730E-1,3.160285950E-1,1.784553528E0,-4.333877563E-1
5.028190730E-1,-3.454017639E-1,1.652908325E-1,-2.660942078E-1
5.078239560E-1,-8.674430847E-1,-9.362030029E-1,-1.522064209E-1
5.128288390E-1,-7.544898987E-1,-9.297943115E-1,-1.276397705E-1
5.178337220E-1,-3.785133362E-1,-7.902717590E-1,-2.086830139E-1
5.228386050E-1,-1.004028320E-1,-9.137725830E-1,-3.129577637E-1
5.278740050E-1,2.737045288E-2,-1.107635498E0,-3.343200684E-1
5.328788880E-1,1.200294495E-1,-1.163043976E0,-2.650260925E-1
5.378837710E-1,2.628898621E-1,-1.063976288E0,-1.926612854E-1
5.428886530E-1,4.588890076E-1,-9.084320068E-1,-1.616859436E-1
5.478935360E-1,6.814575195E-1,-7.316589355E-1,-1.383209229E-1
5.528984190E-1,8.849334717E-1,-4.588890076E-1,-1.105499268E-1
5.579338190E-1,1.038341522E0,-7.650375366E-2,-8.184432983E-2
5.629387020E-1,1.158771515E0,3.304481506E-1,-7.009506226E-2
5.679435850E-1,1.281204224E0,7.106971741E-1,-8.718490601E-2
5.729789850E-1,1.445293427E0,1.060104370E0,-1.276397705E-1
5.779838680E-1,1.644496918E0,1.329669952E0,-1.627540588E-1
5.829887510E-1,1.830883026E0,1.494693756E0,-1.883888245E-1
5.879936340E-1,1.903381348E0,1.525669098E0,-2.076148987E-1
5.929985170E-1,1.826610565E0,1.486282349E0,-2.235031128E-1
5.980034000E-1,1.675338745E0,1.522464752E0,-2.927970886E-1
6.030082820E-1,1.488952637E0,1.532077789E0,-3.875923157E-1
6.080131650E-1,1.284408569E0,1.468124390E0,-4.195022583E-1
6.130485660E-1,1.090545654E0,1.355171204E0,-3.897285461E-1
6.180534480E-1,9.392738342E-1,1.229534149E0,-3.321838379E-1
6.230583310E-1,8.466148376E-1,1.122989655E0,-2.566146851E-1
6.280632140E-1,8.135032654E-1,1.052627563E0,-1.691627502E-1
6.330680970E-1,8.295249939E-1,9.918785095E-1,-7.329940796E-2
6.381034970E-1,8.615684509E-1,9.366035461E-1,9.746551514E-3
6.431083800E-1,8.988189697E-1,8.811950684E-1,6.942749023E-2
6.481132630E-1,9.414100647E-1,8.236503601E-1,1.034736633E-1
6.531181460E-1,9.914779663E-1,8.012199402E-1,1.088142395E-1
6.581230280E-1,1.038341522E0,8.375358582E-1,8.651733398E-2
6.631584290E-1,1.070251465E0,9.013557434E-1,6.408691406E-2
6.681633120E-1,1.075592041E0,9.631729126E-1,4.699707031E-2
6.731681940E-1,1.043682098E0,1.008968353E0,3.952026367E-2
6.781730770E-1,9.510231018E-1,9.589004517E-1,5.340576172E-2
6.831779600E-1,7.954788208E-1,9.002876282E-1,8.758544922E-2
6.882133600E-1,7.229804993E-1,1.065444946E0,8.758544922E-2
6.932182430E-1,7.464790344E-1,1.216716766E0,9.172439575E-2
6.982231260E-1,7.912063599E-1,1.171989441E0,1.226997375E-1
7.032280090E-1,8.487510681E-1,1.011104584E0,1.514053345E-1
7.082328920E-1,9.435462952E-1,9.376716614E-1,1.727676392E-1
7.132377750E-1,1.042613983E0,8.544921875E-1,1.939964294E-1
7.182731750E-1,1.111907959E0,6.372642517E-1,2.025413513E-1
7.232780580E-1,1.175727844E0,5.029487610E-1,1.738357544E-1
7.282829410E-1,1.248226166E0,4.295158386E-1,9.599685669E-2
7.332878230E-1,1.314182281E0,3.304481506E-1,-9.038925171E-2
7.383232240E-1,1.398429871E0,3.421974182E-1,-2.470016479E-1
7.433281070E-1,1.484680176E0,4.443359375E-1,-3.182983398E-1
7.483329890E-1,1.544361115E0,6.094932556E-1,-3.715705872E-1
7.533378720E-1,1.594429016E0,8.523559570E-1,-4.344558716E-1
7.583427550E-1,1.644496918E0,1.013240814E0,-5.356597900E-1
7.633476380E-1,1.702041626E0,1.031398773E0,-6.847953796E-1
7.683830380E-1,1.772270203E0,9.845352173E-1,-8.957481384E-1
7.733879210E-1,1.843700409E0,9.376716614E-1,-1.153564453E0
7.783928040E-1,1.893768311E0,8.833312988E-1,-1.414451599E0
7.833976870E-1,1.914997101E0,8.321952820E-1,-1.662654877E0
7.884025690E-1,1.922473907E0,8.183097839E-1,-1.909790039E0
7.934074520E-1,1.932086945E0,8.321952820E-1,-2.152786255E0
7.984428530E-1,1.935291290E0,8.641052246E-1,-2.394580841E0
8.034477350E-1,1.920337677E0,9.077644348E-1,-2.631034851E0
8.084526180E-1,1.864929199E0,9.056282043E-1,-2.843055725E0
8.134575010E-1,1.781883240E0,8.619689941E-1,-3.016624451E0
8.184929020E-1,1.698837280E0,8.300590515E-1,-3.149871826E0
8.234977840E-1,1.611385345E0,7.937431335E-1,-3.259487152E0
8.285026670E-1,1.499633789E0,7.575607300E-1,-3.344802856E0
8.335075500E-1,1.357975006E0,7.406044006E-1,-3.401279449E0
8.385124330E-1,1.194953918E0,7.331275940E-1,-3.438529968E0
8.435173160E-1,6.675720215E-1,9.940147400E-1,-3.525848389E0
8.485527160E-1,-3.324508667E-2,8.726501465E-1,-3.632392883E0
8.535575990E-1,-5.446052551E-1,8.865356445E-1,-3.669643402E0
8.585624820E-1,-1.427803040E0,1.233806610E0,-3.702621460E0
8.635673640E-1,-1.870937347E0,2.356529236E-1,-3.726119995E0
8.685722470E-1,-2.198982239E0,1.269721985E-1,-3.839073181E0
8.735771300E-1,-2.370548248E0,4.028129578E-1,-3.816642761E0
8.785820130E-1,-2.492980957E0,5.200386047E-1,-3.630256653E0
8.836174130E-1,-2.507934570E0,5.508804321E-1,-3.443870544E0
8.886222960E-1,-2.951068878E0,8.715820312E-1,-3.191394806E0
8.936271790E-1,-2.908477783E0,7.267189026E-1,-2.936782837E0
8.986320620E-1,-2.487640381E0,5.146980286E-1,-2.844123840E0
9.036674620E-1,-2.271480560E0,4.327201843E-1,-2.707672119E0
9.086723450E-1,-1.984825134E0,4.263114929E-1,-2.494716644E0
9.136772280E-1,-1.737689972E0,4.528808594E-1,-2.290172577E0
9.186821100E-1,-1.539554596E0,3.953361511E-1,-2.088832855E0
9.237175110E-1,-1.306304932E0,3.208351135E-1,-1.882152557E0
9.287223940E-1,-1.052761078E0,3.005409241E-1,-1.662654877E0
9.337272770E-1,-8.088302612E-1,3.293800354E-1,-1.404972076E0
9.387321590E-1,-6.181716919E-1,3.869247437E-1,-1.149291992E0
9.437370420E-1,-5.094909668E-1,4.464721680E-1,-9.447479248E-1
9.487724430E-1,-4.838562012E-1,5.008125305E-1,-7.977485657E-1
9.537773250E-1,-5.403327942E-1,5.360603333E-1,-6.869316101E-1
9.587822080E-1,-5.446052551E-1,4.263114929E-1,-5.484771729E-1
9.637870910E-1,-4.913330078E-1,3.186988831E-1,-4.100227356E-1
9.687919740E-1,-4.870605469E-1,3.400611877E-1,-3.311157227E-1
9.738273740E-1,-4.775810242E-1,3.442001343E-1,-2.448654175E-1
9.788322570E-1,-4.498100281E-1,3.026771545E-1,-1.543426514E-1
9.838371400E-1,-3.859901428E-1,2.068138123E-1,-6.795883179E-2
9.888420230E-1,-3.028106689E-1,7.904052734E-2,2.042770386E-2
9.938469050E-1,-2.388572693E-1,-3.284454346E-2,1.141548157E-1
9.988823060E-1,-1.835823059E-1,-8.398056030E-2,2.419281006E-1
1.003887189E0,-1.271057129E-1,-6.261825562E-2,3.964042664E-1
1.008892071E0,-1.281738281E-1,2.256393433E-2,5.392646790E-1
1.013896954E0,-1.451301575E-1,3.644943237E-2,6.819915771E-1
1.018901837E0,-1.707649231E-1,4.699707031E-2,7.894706726E-1
1.023906720E0,-2.324485779E-1,6.729125977E-2,8.790588379E-1
1.028942120E0,-3.305816650E-1,5.661010742E-2,9.781265259E-1
1.033947003E0,-4.327201843E-1,3.110885620E-2,1.124057770E0
1.038951886E0,-5.670356750E-1,8.331298828E-2,1.268920898E0
1.043956769E0,-7.300567627E-1,1.141548157E-1,1.412715912E0
1.048961652E0,-8.950805664E-1,9.813308716E-2,1.562919617E0
1.053997052E0,-1.029396057E0,7.156372070E-2,1.714191437E0
1.059001935E0,-1.152896881E0,9.813308716E-2,1.876144409E0
1.064006818E0,-1.287078857E0,1.972007751E-1,2.053985596E0
1.069011700E0,-1.414985657E0,3.548812866E-1,2.251052856E0
1.074016583E0,-1.527938843E0,5.339241028E-1,2.476959229E0
1.079021466E0,-1.613121033E0,7.000160217E-1,2.721958160E0
1.084056866E0,-1.658916473E0,8.386039734E-1,2.957344055E0
1.089061749E0,-1.674938202E0,9.663772583E-1,3.172569275E0
1.094066632E0,-1.774005890E0,9.982872009E-1,3.306751251E0
1.099071515E0,-1.899642944E0,1.104831696E0,3.299274445E0
1.104076398E0,-1.919937134E0,1.264648438E0,3.190593719E0
1.109111798E0,-1.904983521E0,1.300830841E0,3.041458130E0
1.114116681E0,-1.868801117E0,1.198558807E0,2.848663330E0
1.119121564E0,-1.783485413E0,1.121921539E0,2.620754242E0
1.124126446E0,-1.710052490E0,1.112308502E0,2.406597137E0
1.129131329E0,-1.687622070E0,1.113376617E0,2.180824280E0
1.134166730E0,-1.714324951E0,1.104831696E0,1.946372986E0
1.139171612E0,-1.743030548E0,1.029262543E0,1.707782745E0
1.144176495E0,-1.747303009E0,8.512878418E-1,1.488285065E0
1.149181378E0,-1.720733643E0,6.383323669E-1,1.326465607E0
1.154186261E0,-1.657848358E0,4.017448425E-1,1.249694824E0
1.159191144E0,-1.502304077E0,9.813308716E-2,1.268920898E0
1.164226544E0,-1.150760651E0,-3.024101257E-1,1.365852356E0
1.169231427E0,-5.456733704E-1,-7.508850098E-1,1.508579254E0
1.174236310E0,1.285743713E-1,-7.199096680E-1,1.703510284E0
1.179241193E0,5.195045471E-1,-8.932113647E-2,1.914463043E0
1.184246075E0,6.942749023E-1,4.443359375E-1,2.119007111E0
1.189281476E0,6.793212891E-1,4.199028015E-1,2.336368561E0
1.194286359E0,4.013442993E-1,-2.138900757E-1,2.548255920E0
1.199291241E0,-3.644943237E-2,-1.190814972E0,2.713413239E0
1.204296124E0,-5.627632141E-1,-2.637443542E0,3.031978607E0
1.209301007E0,-1.092147827E0,-4.374866486E0,3.776588440E0
1.214336407E0,-1.165714264E0,-5.706405640E0,5.147514343E0
1.219341290E0,-7.758522034E-1,-6.432991028E0,6.477985382E0
1.224346173E0,-1.866531372E-1,-6.866512299E0,7.222728729E0
1.229351056E0,5.205726624E-1,-6.149539948E0,7.102298737E0
1.234355939E0,1.192817688E0,-4.225730896E0,5.912418365E0
1.239360821E0,1.566658020E0,-2.254924774E0,4.222927094E0
1.244396222E0,1.576271057E0,-9.809303284E-1,2.797527313E0
1.249401105E0,1.406974792E0,-4.162979126E-1,1.833553314E0
1.254405987E0,1.202430725E0,-2.863883972E-1,1.309375763E0
1.259410870E0,9.775924683E-1,-1.798439026E-1,1.143150330E0
1.264415753E0,7.060241699E-1,6.301879883E-2,1.236877441E0
1.269451153E0,3.512763977E-1,3.953361511E-1,1.497898102E0
1.274456036E0,4.005432129E-3,8.183097839E-1,1.729145050E0
1.279460919E0,-2.846527100E-1,1.150627136E0,1.897373199E0
1.284465802E0,-4.604911804E-1,1.300830841E0,2.046508789E0
1.289470685E0,-5.212402344E-1,1.248626709E0,2.223415375E0
1.294506085E0,-5.084228516E-1,9.578323364E-1,2.476959229E0
1.299510968E0,-4.690361023E-1,3.655624390E-1,2.832775116E0
1.304515851E0,-4.881286621E-1,-5.964088440E-1,3.442001343E0
1.309520734E0,-3.795814514E-1,-1.448631287E0,3.866043091E0
1.314525616E0,-2.112197876E-1,-2.129287720E0,4.088611603E0
1.319530499E0,-8.972167969E-2,-2.708740234E0,4.310245514E0
1.324565900E0,-3.324508667E-2,-3.226509094E0,4.601039886E0
1.329570782E0,-5.353927612E-2,-3.635597229E0,4.982357025E0
1.334575665E0,-1.440620422E-1,-3.927459717E0,5.392513275E0
1.339580548E0,-2.835845947E-1,-4.188480377E0,5.782375336E0
1.344585431E0,-3.986740112E-1,-4.509048462E0,6.164894104E0
1.349590314E0,-4.701042175E-1,-4.955387115E0,6.532325745E0
1.354595196E0,-5.233764648E-1,-5.464611053E0,6.889209747E0
1.359630597E0,-5.319213867E-1,-5.901336670E0,7.282276154E0
1.364635480E0,-4.125595093E-1,-6.365833282E0,7.678546906E0
1.369640362E0,-1.419258118E-1,-6.900558472E0,8.170681000E0
1.374645245E0,1.850509644E-1,-7.302169800E0,8.636245728E0
1.379650128E0,6.207084656E-1,-7.644100189E0,8.978176117E0
1.384685528E0,1.164112091E0,-7.972278595E0,9.118900299E0
1.389690411E0,1.729679108E0,-8.169345856E0,8.972835541E0
1.394695294E0,2.317676544E0,-8.232231140E0,8.553199768E0
1.399700177E0,2.843990326E0,-8.076686859E0,7.941703796E0
1.404705060E0,3.252010345E0,-7.701644897E0,7.243957520E0
1.409740460E0,3.529987335E0,-7.074260712E0,6.653823853E0
1.414745343E0,3.553485870E0,-6.135787964E0,6.133918762E0
1.419750226E0,3.338260651E0,-5.009727478E0,5.599193573E0
1.424755109E0,2.988853455E0,-3.878459930E0,5.052719116E0
1.429759991E0,2.561607361E0,-2.813148499E0,4.538154602E0
1.434795392E0,2.082290649E0,-1.767063141E0,4.129199982E0
1.439800275E0,1.618862152E0,-7.519531250E-1,3.846817017E0
1.444805157E0,1.141681671E0,1.642227173E-1,3.613567352E0
1.449810040E0,6.814575195E-1,8.609008789E-1,3.346138000E0
1.454814923E0,2.436637878E-1,1.258239746E0,3.019161224E0
1.459819806E0,-1.515388489E-1,1.336078644E0,2.579231262E0
1.464855206E0,-4.551506042E-1,1.247558594E0,2.007122040E0
1.469860089E0,-6.010818481E-1,1.165580750E0,1.392421722E0
1.474864972E0,-6.138992310E-1,1.059036255E0,9.077644348E-1
1.479869855E0,-5.244445801E-1,1.028194427E0,5.455398560E-1
1.484874737E0,-3.379249573E-1,1.167716980E0,2.515411377E-1
1.489910138E0,-1.355171204E-1,1.308307648E0,7.583618164E-2
1.494915021E0,2.737045288E-2,1.423397064E0,1.401901245E-2
1.499919903E0,1.157569885E-1,1.537418365E0,-2.109527588E-2
1.504924786E0,3.057479858E-2,1.630077362E0,-3.818511963E-2
1.509929669E0,-2.345848083E-1,1.802577972E0,1.188278198E-2
1.514934552E0,-4.754447937E-1,1.884689331E0,1.935958862E-2
1.519969952E0,-6.830596924E-1,1.871871948E0,-2.216339111E-2
1.525005353E0,-8.813285828E-1,1.833553314E0,-9.252548218E-2
1.530010235E0,-1.003761292E0,1.723804474E0,-1.883888245E-1
1.535015118E0,-1.010169983E0,1.494693756E0,-2.970695496E-1
1.540020001E0,-8.982849121E-1,1.149559021E0,-4.036140442E-1
1.545024884E0,-7.247161865E-1,7.990837097E-1,-4.984092712E-1
1.550029767E0,-5.499458313E-1,5.200386047E-1,-5.570220947E-1
1.555034650E0,-4.050827026E-1,2.994728088E-1,-5.686378479E-1
1.560070050E0,-2.974700928E-1,1.248359680E-1,-5.026817322E-1
1.565074933E0,-2.197647095E-1,1.201629639E-3,-4.068183899E-1
1.570079816E0,-1.397895813E-1,-9.893417358E-2,-3.907966614E-1
1.575084698E0,-7.596969604E-2,-1.638221741E-1,-4.173660278E-1
1.580089581E0,-3.231048584E-2,-1.659584045E-1,-4.578208923E-1
1.585094464E0,-9.880065918E-3,-1.084136963E-1,-5.196380615E-1
1.590129864E0,-1.308441162E-2,6.542205811E-3,-6.028175354E-1
1.595134747E0,-5.353927612E-2,2.217674255E-1,-7.369995117E-1
1.600139630E0,-1.376533508E-1,5.360603333E-1,-9.021568298E-1
1.605144513E0,-2.133560181E-1,8.651733398E-1,-1.049156189E0
1.610149396E0,-2.409934998E-1,1.154899597E0,-1.170520782E0
1.615184796E0,-2.229690552E-1,1.385078430E0,-1.262111664E0
1.620189679E0,-1.696968079E-1,1.539554596E0,-1.315383911E0
1.625194562E0,-9.613037109E-2,1.642761230E0,-1.329269409E0
1.630199444E0,-1.094818115E-2,1.712055206E0,-1.301631927E0
1.635204327E0,5.727767944E-2,1.771736145E0,-1.238746643E0
1.640239728E0,7.637023926E-2,1.881484985E0,-1.170520782E0
1.645244610E0,8.277893066E-2,2.014598846E0,-1.093883514E0
1.650249493E0,9.986877441E-2,2.138233185E0,-1.002292633E0
1.655254376E0,1.296424866E-1,2.237167358E0,-8.850669861E-1
1.660259259E0,1.743698120E-1,2.290439606E0,-7.284545898E-1
1.665264142E0,2.169609070E-1,2.346916199E0,-5.654335022E-1
1.670299542E0,2.190971375E-1,2.471618652E0,-4.333877563E-1
1.675304425E0,2.841186523E-1,2.447052002E0,-3.161621094E-1
1.680309308E0,3.598213196E-1,2.303256989E0,-2.033424377E-1
1.685314191E0,3.555488586E-1,1.930484772E0,-1.255035400E-1
1.690319073E0,3.591537476E-2,3.347206116E-1,-1.787757874E-1
1.695354474E0,-2.197647095E-1,-1.898174286E0,-2.842521667E-1
1.700359357E0,-2.376556396E-2,-3.054943085E0,-3.013420105E-1
1.705364239E0,1.925277710E-1,-3.692073822E0,-3.002738953E-1
1.710369122E0,3.170967102E-1,-4.122390747E0,-2.895927429E-1
1.715374005E0,3.767776489E-1,-4.277935028E0,-2.480697632E-1
1.720409405E0,3.821182251E-1,-4.145889282E0,-1.372528076E-1
1.725414288E0,3.630256653E-1,-3.699550629E0,-4.138946533E-3
1.730419171E0,3.160285950E-1,-3.052806854E0,1.301765442E-1
1.735424054E0,2.244377136E-1,-2.304992676E0,2.739715576E-1
1.740428937E0,8.171081543E-2,-1.507110596E0,3.921318054E-1
1.745464337E0,-8.865356445E-2,-7.124328613E-1,4.646301270E-1
1.750469220E0,-2.623558044E-1,1.335144043E-4,4.849243164E-1
1.755474103E0,-4.104232788E-1,4.081535339E-1,4.507446289E-1
1.760478985E0,-4.775810242E-1,2.313804626E-1,3.847885132E-1
1.765483868E0,-4.934692383E-1,-8.932113647E-2,3.090858459E-1
1.770488751E0,-4.337882996E-1,-2.106857300E-1,2.324485779E-1
1.775493634E0,-2.506065369E-1,-1.947975159E-1,1.578140259E-1
1.780529034E0,1.869201660E-3,1.829147339E-2,1.013374329E-1
1.785533917E0,2.511405945E-1,2.889251709E-1,9.279251099E-2
1.790538800E0,4.088211060E-1,4.295158386E-1,1.291084290E-1
1.795543683E0,4.460716248E-1,3.251075745E-1,1.642227173E-1
1.800579083E0,4.247093201E-1,-4.886627197E-2,1.813125610E-1
1.805583966E0,4.034805298E-1,-5.388641357E-1,1.918601990E-1
1.810588849E0,3.895950317E-1,-8.371353149E-1,1.897239685E-1
1.815593732E0,3.662300110E-1,-1.022453308E0,2.036094666E-1
1.820598614E0,3.395271301E-1,-1.558246613E0,2.089500427E-1
1.825603497E0,2.702331543E-1,-2.210197449E0,1.588821411E-1
1.830638898E0,1.765060425E-1,-2.408332825E0,9.492874146E-2
1.835643780E0,1.105499268E-1,-1.989765167E0,7.583618164E-2
1.840648663E0,8.277893066E-2,-1.400699615E0,9.813308716E-2
1.845653546E0,8.384704590E-2,-9.297943115E-1,1.397895813E-1
1.850658429E0,1.403236389E-1,-6.454086304E-1,2.004051208E-1
1.855693829E0,2.361869812E-1,-5.675697327E-1,2.814483643E-1
1.860698712E0,3.245735168E-1,-6.092262268E-1,3.634262085E-1
1.865703595E0,3.799819946E-1,-6.986808777E-1,4.199028015E-1
1.870708478E0,3.831863403E-1,-7.742500305E-1,4.199028015E-1
1.875713360E0,3.534126282E-1,-7.806587219E-1,3.815841675E-1
1.880748761E0,3.097534180E-1,-7.348632812E-1,3.229713440E-1
1.885753644E0,2.648925781E-1,-6.879997253E-1,2.611541748E-1
1.890758527E0,2.126884460E-1,-5.164337158E-1,2.142906189E-1
1.895763409E0,1.978683472E-1,-1.969337463E-1,2.345848083E-1
1.900768292E0,2.383232117E-1,2.153587341E-1,3.037452698E-1
1.905773175E0,3.022766113E-1,5.934715271E-1,4.273796082E-1
1.910808575E0,3.576850891E-1,7.682418823E-1,4.742431641E-1
1.915813458E0,3.662300110E-1,6.841278076E-1,3.964042664E-1
1.920818341E0,2.980041504E-1,5.476760864E-1,2.419281006E-1
1.925823224E0,1.668930054E-1,5.093574524E-1,1.098823547E-1
1.930828107E0,2.523422241E-2,4.614257812E-1,4.913330078E-2
1.935863507E0,-6.422042847E-2,4.710388184E-1,1.081466675E-2
1.940868390E0,-8.865356445E-2,5.317878723E-1,4.405975342E-3
1.945873273E0,-6.208419800E-2,5.871963501E-1,2.042770386E-2
1.950878155E0,-9.880065918E-3,6.223106384E-1,4.058837891E-2
1.955883038E0,4.446029663E-2,6.052207947E-1,5.340576172E-2
1.960918439E0,7.530212402E-2,5.414009094E-1,7.156372070E-2
1.965923321E0,6.462097168E-2,4.507446289E-1,9.386062622E-2
1.970928204E0,1.455307007E-2,3.484725952E-1,8.438110352E-2
1.975933087E0,-4.926681519E-2,2.036094666E-1,3.217697144E-2
1.980937970E0,-1.089477539E-1,5.874633789E-2,-2.536773682E-2
1.985942853E0,-1.483345032E-1,-2.536773682E-2,-6.368637085E-2
1.990978253E0,-1.590156555E-1,-3.925323486E-2,-7.863998413E-2
1.995983136E0,-1.483345032E-1,1.295089722E-2,-7.436752319E-2
2.000988019E0,-1.142883301E-1,1.301765442E-1,-6.475448608E-2
2.005992902E0,-8.438110352E-2,1.344490051E-1,-4.032135010E-2
2.010997784E0,-6.315231323E-2,1.823806763E-1,2.149581909E-2
2.016033185E0,-4.392623901E-2,3.208351135E-1,8.544921875E-2
2.021038068E0,-3.751754761E-2,4.507446289E-1,1.248359680E-1
2.026042950E0,-2.696990967E-2,5.626296997E-1,1.301765442E-1
2.031047833E0,-9.880065918E-3,6.702423096E-1,1.226997375E-1
2.036052716E0,2.523422241E-2,7.969474792E-1,1.162910461E-1
2.041088116E0,1.094818115E-1,1.117649078E0,1.556777954E-1
2.046092999E0,2.265739441E-1,1.555442810E0,2.046775818E-1
2.051097882E0,3.033447266E-1,1.672668457E0,1.599502563E-1
2.056102765E0,3.192329407E-1,1.500034332E0,5.447387695E-2
2.061107648E0,2.809143066E-1,1.260375977E0,-6.261825562E-2
2.066112530E0,2.190971375E-1,1.139011383E0,-1.564788818E-1
2.071147931E0,1.711654663E-1,1.135807037E0,-1.990699768E-1
2.076152814E0,1.392555237E-1,1.141014099E0,-2.001380920E-1
2.081157696E0,1.062774658E-1,1.137943268E0,-1.830482483E-1
2.086162579E0,8.277893066E-2,1.157035828E0,-1.659584045E-1
2.091167462E0,6.048202515E-2,1.140079498E0,-1.500701904E-1
2.096202862E0,5.941390991E-2,1.084671021E0,-1.723670959E-1
2.101207745E0,4.125595093E-2,9.471511841E-1,-1.980018616E-1
2.106212628E0,2.096176147E-2,7.916069031E-1,-1.926612854E-1
2.111217511E0,7.209777832E-3,6.435394287E-1,-1.490020752E-1
2.116222394E0,-1.415252686E-2,5.296516418E-1,-7.223129272E-2
2.121257794E0,-3.431320190E-2,5.029487610E-1,-9.479522705E-3
2.126262677E0,-5.460739136E-2,5.711746216E-1,-7.343292236E-3
2.131267560E0,-7.917404175E-2,6.563568115E-1,-3.284454346E-2
2.136272443E0,-1.164245605E-1,7.543563843E-1,-3.925323486E-2
2.141277325E0,-1.515388489E-1,8.960151672E-1,-5.100250244E-2
2.146282208E0,-1.729011536E-1,1.049423218E0,-7.757186890E-2
2.151317609E0,-1.887893677E-1,1.191082001E0,-8.398056030E-2
2.156322491E0,-2.037429810E-1,1.316852570E0,-7.650375366E-2
2.161327374E0,-2.197647095E-1,1.412715912E0,-7.436752319E-2
2.166332257E0,-2.293777466E-1,1.508579254E0,-7.650375366E-2
2.171337140E0,-2.186965942E-1,1.632213593E0,-7.009506226E-2
2.176372540E0,-1.782417297E-1,1.740760803E0,-7.650375366E-2
2.181377423E0,-1.376533508E-1,1.752510071E0,-1.021385193E-1
2.186382306E0,-1.036071777E-1,1.671600342E0,-1.297760010E-1
2.191387189E0,-5.460739136E-2,1.531009674E0,-1.457977295E-1
2.196392071E0,2.843856812E-2,1.396694183E0,-1.543426514E-1
2.201427472E0,1.499366760E-1,1.291217804E0,-1.255035400E-1
2.206432355E0,2.766418457E-1,1.215648651E0,-7.436752319E-2
2.211437237E0,3.725051880E-1,1.135807037E0,-4.032135010E-2
2.216442120E0,4.088211060E-1,9.886741638E-1,-3.070831299E-2
2.221447003E0,3.970718384E-1,8.054924011E-1,-2.964019775E-2
2.226482403E0,3.906631470E-1,6.841278076E-1,-2.429962158E-2
2.231487286E0,4.109573364E-1,6.681060791E-1,-2.216339111E-2
2.236492169E0,4.567527771E-1,7.735824585E-1,-2.002716064E-2
2.241497052E0,5.216407776E-1,9.524917603E-1,-2.643585205E-2
2.246501935E0,5.877304077E-1,1.124057770E0,-5.313873291E-2
2.251506818E0,6.313896179E-1,1.237945557E0,-9.252548218E-2
2.256542218E0,6.281852722E-1,1.271057129E0,-1.212310791E-1
2.261547101E0,5.941390991E-1,1.244354248E0,-1.351165771E-1
2.266551984E0,5.344581604E-1,1.174125671E0,-1.606178284E-1
2.271556866E0,4.503440857E-1,1.078262329E0,-2.213668823E-1
2.276561749E0,3.566169739E-1,1.008968353E0,-2.949333191E-1
2.281597150E0,2.670288086E-1,9.845352173E-1,-3.726387024E-1
2.286602032E0,1.925277710E-1,1.046218872E0,-4.472732544E-1
2.291606915E0,1.210975647E-1,1.154899597E0,-4.984092712E-1
2.296611798E0,4.232406616E-2,1.232738495E0,-4.962730408E-1
2.301616681E0,-1.628875732E-2,1.325397491E0,-4.834556580E-1
2.306621564E0,-4.926681519E-2,1.444625854E0,-4.855918884E-1
2.311656964E0,-6.849288940E-2,1.539554596E0,-4.952049255E-1
2.316661847E0,-8.972167969E-2,1.618328094E0,-5.132293701E-1
2.321666730E0,-1.142883301E-1,1.663055420E0,-5.185699463E-1
2.326671612E0,-1.451301575E-1,1.640625000E0,-5.121612549E-1
2.331676495E0,-2.080154419E-1,1.505374908E0,-5.132293701E-1
2.336711896E0,-3.006744385E-1,1.263580322E0,-4.973411560E-1
2.341716778E0,-3.763771057E-1,1.021785736E0,-4.387283325E-1
2.346721661E0,-4.211044312E-1,8.375358582E-1,-3.578186035E-1
2.351726544E0,-4.296493530E-1,7.363319397E-1,-2.778434753E-1
2.356731427E0,-3.944015503E-1,7.926750183E-1,-2.352523804E-1
2.361766827E0,-3.389930725E-1,9.759902954E-1,-2.288436890E-1
2.366771710E0,-2.878570557E-1,1.191082001E0,-2.288436890E-1
2.371776593E0,-2.484703064E-1,1.431941986E0,-2.138900757E-1
2.376781476E0,-2.208328247E-1,1.660919189E0,-1.969337463E-1
2.381786359E0,-1.984024048E-1,1.841964722E0,-1.851844788E-1
2.386791241E0,-1.825141907E-1,1.934757233E0,-1.798439026E-1
2.391826642E0,-1.686286926E-1,1.901645660E0,-1.830482483E-1
2.396831525E0,-1.536750793E-1,1.749305725E0,-2.001380920E-1
2.401836407E0,-1.281738281E-1,1.532077789E0,-2.470016479E-1
2.406841290E0,-9.719848633E-2,1.276397705E0,-3.172302246E-1
2.411846173E0,-7.490158081E-2,9.993553162E-1,-3.918647766E-1
2.416881573E0,-6.315231323E-2,7.436752319E-1,-4.578208923E-1
2.421886456E0,-5.247116089E-2,5.765151978E-1,-4.706382751E-1
2.426891339E0,-3.858566284E-2,4.954719543E-1,-4.195022583E-1
2.431896222E0,-4.606246948E-2,4.603576660E-1,-3.588867188E-1
2.436901105E0,-3.538131714E-2,5.881309509E-1,-2.981376648E-1
2.441936505E0,4.005432129E-3,8.865356445E-1,-2.566146851E-1
2.446941388E0,1.562118530E-2,1.154899597E0,-2.566146851E-1
2.451946271E0,-2.162933350E-2,1.287078857E0,-2.799797058E-1
2.456951153E0,-6.849288940E-2,1.357307434E0,-3.088188171E-1
2.461956036E0,-9.506225586E-2,1.436214447E0,-3.343200684E-1
2.466991437E0,-1.260375977E-1,1.459579468E0,-3.385925293E-1
2.471996319E0,-1.686286926E-1,1.433010101E0,-3.129577637E-1
2.477001202E0,-2.112197876E-1,1.379737854E0,-2.628898621E-1
2.482006085E0,-2.484703064E-1,1.346626282E0,-2.224349976E-1
2.487010968E0,-2.921295166E-1,1.278533936E0,-1.926612854E-1
2.492015851E0,-3.389930725E-1,1.245422363E0,-1.830482483E-1
2.497051251E0,-3.539466858E-1,1.309375763E0,-1.819801331E-1
2.502056134E0,-3.464698792E-1,1.386146545E0,-1.809120178E-1
2.507061017E0,-3.316497803E-1,1.422328949E0,-1.926612854E-1
2.512065900E0,-3.060150146E-1,1.396694183E0,-1.819801331E-1
2.517070782E0,-2.431297302E-1,1.381874084E0,-1.479339600E-1
2.522106183E0,-1.898574829E-1,1.315784454E0,-1.148223877E-1
2.527111066E0,-1.793098450E-1,1.136875153E0,-1.074790955E-1
2.532115948E0,-1.718330383E-1,9.556961060E-1,-1.032066345E-1
2.537120831E0,-1.504707336E-1,8.448791504E-1,-1.074790955E-1
2.542125714E0,-1.249694824E-1,8.076286316E-1,-1.094818115E-1
2.547161114E0,-9.399414062E-2,7.874679565E-1,-9.679794312E-2
2.552165997E0,-7.276535034E-2,7.064247131E-1,-8.184432983E-2
2.557170880E0,-7.276535034E-2,4.496765137E-1,-8.932113647E-2
2.562175763E0,-9.933471680E-2,9.813308716E-2,-1.169586182E-1
2.567180646E0,-1.110839844E-1,-9.893417358E-2,-1.404571533E-1
2.572185528E0,-1.014709473E-1,2.269744873E-3,-1.265716553E-1
2.577220929E0,-9.719848633E-2,2.367210388E-1,-1.074790955E-1
2.582225812E0,-1.142883301E-1,4.838562012E-1,-9.466171265E-2
2.587230694E0,-1.515388489E-1,6.978797913E-1,-9.572982788E-2
2.592235577E0,-2.122879028E-1,7.916069031E-1,-9.252548218E-2
2.597240460E0,-2.794456482E-1,8.480834961E-1,-5.741119385E-2
2.602275860E0,-2.953338623E-1,1.170921326E0,-2.002716064E-3
2.607280743E0,-2.474021912E-1,1.443557739E0,4.165649414E-2
2.612285626E0,-1.600837708E-1,1.394557953E0,7.690429688E-2
2.617290509E0,-3.751754761E-2,1.320056915E0,7.049560547E-2
2.622295392E0,9.452819824E-2,1.310443878E0,1.722335815E-2
2.627330792E0,2.000045776E-1,1.337146759E0,-3.070831299E-2
2.632335675E0,2.702331543E-1,1.387081146E0,-5.420684814E-2
2.637340558E0,3.129577637E-1,1.446762085E0,-5.834579468E-2
2.642345441E0,3.427314758E-1,1.491489410E0,-4.993438721E-2
2.647350323E0,3.331184387E-1,1.461715698E0,-2.429962158E-2
2.652355206E0,6.048202515E-2,8.289909363E-1,3.858566284E-2
2.657390607E0,-6.500816345E-1,-8.339309692E-1,1.663589478E-1
2.662395489E0,-9.952163696E-1,-1.789493561E0,2.324485779E-1
2.667400372E0,-1.096420288E0,-2.380695343E0,2.686309814E-1
2.672405255E0,-1.134738922E0,-3.009147644E0,3.197669983E-1
2.677410138E0,-9.472846985E-1,-3.266963959E0,3.655624390E-1
2.682445538E0,-6.639671326E-1,-3.128509521E0,4.156303406E-1
2.687450421E0,-3.965377808E-1,-2.747192383E0,4.475402832E-1
2.692455304E0,-6.742477417E-2,-2.220878601E0,4.432678223E-1
2.697460187E0,2.096176147E-1,-1.643562317E0,4.102897644E-1
2.702465069E0,3.746414185E-1,-1.007633209E0,3.910636902E-1
2.707500470E0,4.109573364E-1,-4.845237732E-1,4.017448425E-1
2.712505353E0,3.693008423E-1,-2.044105530E-1,4.432678223E-1
2.717510235E0,3.693008423E-1,-9.252548218E-2,5.061531067E-1
2.722515118E0,3.938674927E-1,-1.638221741E-1,5.328559875E-1
2.727520001E0,4.002761841E-1,-3.854560852E-1,4.827880859E-1
2.732524884E0,3.842544556E-1,-5.964088440E-1,4.731750488E-1
2.737560284E0,3.853225708E-1,-7.295227051E-1,4.380607605E-1
2.742565167E0,4.045486450E-1,-7.295227051E-1,4.102897644E-1
2.747570050E0,4.407310486E-1,-6.559562683E-1,3.623580933E-1
2.752574933E0,5.089569092E-1,-6.229782104E-1,3.357887268E-1
2.757579816E0,5.994796753E-1,-5.782508850E-1,2.941322327E-1
2.762615216E0,6.793212891E-1,-5.846595764E-1,1.929283142E-1
2.767620099E0,7.368659973E-1,-6.986808777E-1,8.544921875E-2
2.772624982E0,7.528877258E-1,-7.540893555E-1,1.205635071E-1
2.777629864E0,7.507514954E-1,-4.642295837E-1,2.547454834E-1
2.782634747E0,7.805252075E-1,-1.457977295E-1,3.719711304E-1
2.787670148E0,7.847976685E-1,-5.207061768E-3,3.996086121E-1
2.792675030E0,7.443428040E-1,1.401901245E-2,3.357887268E-1
2.797679913E0,6.495475769E-1,-2.323150635E-2,2.335166931E-1
2.802684796E0,5.248451233E-1,1.081466675E-2,1.886558533E-1
2.807689679E0,4.013442993E-1,7.904052734E-2,2.068138123E-1
2.812694562E0,2.607536316E-1,1.897239685E-1,2.397918701E-1
2.817729962E0,8.811950684E-2,3.783798218E-1,2.782440186E-1
2.822734845E0,-1.089477539E-1,3.921318054E-1,2.547454834E-1
2.827739728E0,-2.964019775E-1,3.037452698E-1,1.599502563E-1
2.832744610E0,-3.678321838E-1,1.866531372E-1,2.256393433E-2
2.837749493E0,-3.507423401E-1,-9.479522705E-3,-1.255035400E-1
2.842784894E0,-4.018783569E-1,-2.964019775E-2,-2.331161499E-1
2.847789777E0,-6.490135193E-1,2.664947510E-1,-3.608894348E-1
2.852794659E0,-8.950805664E-1,5.913352966E-1,-3.993415833E-1
2.857799542E0,-1.002693176E0,6.584930420E-1,-4.323196411E-1
2.862804425E0,-8.770561218E-1,3.931999207E-1,-6.219100952E-1
2.867839825E0,-5.893325806E-1,-1.425933838E-1,-8.232498169E-1
2.872844708E0,-3.327178955E-1,-6.944084167E-1,-7.988166809E-1
2.877849591E0,-1.387214661E-1,-9.787940979E-1,-6.336593628E-1
2.882854474E0,-2.590179443E-2,-9.638404846E-1,-5.313873291E-1
2.887859357E0,-1.628875732E-2,-7.667732239E-1,-5.164337158E-1
2.892864239E0,-2.080154419E-1,-5.026817322E-1,-5.185699463E-1
2.897899640E0,-5.627632141E-1,-1.616859436E-1,-4.620933533E-1
2.902904523E0,-8.631706238E-1,3.357887268E-1,-5.399322510E-1
2.907909405E0,-9.590339661E-1,7.192420959E-1,-6.901359558E-1
2.912914288E0,-8.642387390E-1,1.002559662E0,-7.072257996E-1
2.917919171E0,-6.458091736E-1,1.105899811E0,-6.229782104E-1
2.922954571E0,-3.656959534E-1,9.770584106E-1,-5.729103088E-1
2.927959454E0,-9.506225586E-2,8.587646484E-1,-5.185699463E-1
2.932964337E0,1.478004456E-1,7.789230347E-1,-4.312515259E-1
2.937969220E0,3.224372864E-1,7.064247131E-1,-3.811836243E-1
2.942974103E0,4.279136658E-1,6.925392151E-1,-3.567504883E-1
2.948009503E0,3.767776489E-1,6.062889099E-1,-2.277755737E-1
2.953014386E0,1.733016968E-1,5.392646790E-1,-1.085472107E-1
2.958019269E0,9.559631348E-2,6.946754456E-1,-1.126861572E-1
2.963024152E0,1.765060425E-1,8.534240723E-1,-1.180267334E-1
2.968029034E0,3.054809570E-1,9.802627563E-1,-4.352569580E-2
2.973033917E0,4.514122009E-1,1.094150543E0,5.767822266E-2
2.978069318E0,5.962753296E-1,1.212444305E0,1.706314087E-1
2.983074200E0,7.006835938E-1,1.328601837E0,3.165626526E-1
2.988079083E0,7.762527466E-1,1.502170563E0,4.284477234E-1
2.993083966E0,8.348655701E-1,1.745033264E0,5.243110657E-1
2.998088849E0,8.699798584E-1,2.018871307E0,6.052207947E-1
3.003124249E0,8.551597595E-1,2.222347260E0,6.308555603E-1
3.008129132E0,7.741165161E-1,2.389507294E0,5.945396423E-1
3.013134015E0,6.260490417E-1,2.522754669E0,4.891967773E-1
3.018138898E0,4.471397400E-1,2.618618011E0,3.463363647E-1
3.023143780E0,2.873229980E-1,2.646255493E0,2.089500427E-1
3.028179181E0,1.861190796E-1,2.631435394E0,9.492874146E-2
3.033184064E0,1.349830627E-1,2.578163147E0,2.576828003E-2
3.038188946E0,1.243019104E-1,2.538642883E0,-2.323150635E-2
3.043193829E0,1.435279846E-1,2.548255920E0,-7.436752319E-2
3.048198712E0,1.754379272E-1,2.529163361E0,-1.329803467E-1
3.053203595E0,2.148246765E-1,2.479095459E0,-1.851844788E-1
3.058238995E0,2.638244629E-1,2.425823212E0,-2.224349976E-1
3.063243878E0,3.150939941E-1,2.388439178E0,-2.309799194E-1
3.068248761E0,3.640937805E-1,2.307529449E0,-1.969337463E-1
3.073253644E0,4.150962830E-1,2.203121185E0,-1.627540588E-1
3.078258527E0,4.556846619E-1,2.149848938E0,-1.319122314E-1
3.083293927E0,4.790496826E-1,2.111530304E0,-7.970809937E-2
3.088298810E0,4.886627197E-1,2.053985596E0,-1.054763794E-2
3.093303693E0,4.929351807E-1,1.991100311E0,5.874633789E-2
3.098308575E0,4.833221436E-1,1.928348541E0,1.312446594E-1
3.103313458E0,4.578208923E-1,1.865463257E0,1.939964294E-1
3.108348859E0,4.343223572E-1,1.792964935E0,2.303123474E-1
3.113353741E0,4.150962830E-1,1.722736359E0,2.408599854E-1
3.118358624E0,3.992080688E-1,1.656646729E0,2.271080017E-1
3.123363507E0,3.938674927E-1,1.580009460E0,1.982688904E-1
3.128368390E0,4.045486450E-1,1.486282349E0,1.546096802E-1
3.133403790E0,4.332542419E-1,1.359443665E0,9.813308716E-2
3.138408673E0,4.801177979E-1,1.202831268E0,2.269744873E-3
3.143413556E0,5.663681030E-1,1.003627777E0,-1.265716553E-1
3.148418439E0,6.793212891E-1,7.842636108E-1,-2.437973022E-1
3.153423321E0,8.072280884E-1,5.850601196E-1,-3.471374512E-1
3.158428204E0,9.084320068E-1,4.006767273E-1,-4.494094849E-1
3.163463605E0,9.606361389E-1,1.813125610E-1,-5.185699463E-1
3.168468487E0,9.829330444E-1,-1.010704041E-1,-5.080223083E-1
3.173473370E0,9.861373901E-1,-3.811836243E-1,-3.875923157E-1
3.178478253E0,9.690475464E-1,-5.825233459E-1,-1.905250549E-1
3.183483136E0,9.403419495E-1,-6.528854370E-1,2.470016479E-2
3.188518536E0,9.127044678E-1,-6.272506714E-1,1.875877380E-1
3.193523419E0,8.881378174E-1,-4.930686951E-1,2.611541748E-1
3.198528302E0,8.721160889E-1,-2.586174011E-1,2.664947510E-1
3.203533185E0,8.530235291E-1,-2.002716064E-2,2.429962158E-1
3.208538068E0,8.380699158E-1,1.460647583E-1,2.121543884E-1
3.213542950E0,8.124351501E-1,2.271080017E-1,1.845169067E-1
3.218578351E0,7.762527466E-1,2.643585205E-1,1.546096802E-1
3.223583234E0,7.293891907E-1,3.176307678E-1,1.226997375E-1
3.228588116E0,6.857299805E-1,4.081535339E-1,9.813308716E-2
3.233592999E0,6.506156921E-1,4.911994934E-1,8.438110352E-2
3.238597882E0,6.164360046E-1,5.626296997E-1,5.554199219E-2
3.243633282E0,5.962753296E-1,6.041526794E-1,1.201629639E-3
3.248638165E0,5.749130249E-1,6.159019470E-1,-7.116317749E-2
3.253643048E0,5.462074280E-1,5.881309509E-1,-1.691627502E-1
3.258647931E0,5.110931396E-1,4.933357239E-1,-2.682304382E-1
3.263652814E0,4.758453369E-1,3.644943237E-1,-3.257751465E-1
3.268688214E0,4.492759705E-1,2.579498291E-1,-3.321838379E-1
3.273693097E0,4.321861267E-1,2.089500427E-1,-3.332519531E-1
3.278697980E0,4.247093201E-1,2.271080017E-1,-3.439331055E-1
3.283702862E0,4.321861267E-1,2.867889404E-1,-3.503417969E-1
3.288707745E0,4.460716248E-1,3.709030151E-1,-3.546142578E-1
3.293743146E0,4.715728760E-1,4.742431641E-1,-3.535461426E-1
3.298748028E0,5.036163330E-1,5.945396423E-1,-3.450012207E-1
3.303752911E0,5.269813538E-1,7.352638245E-1,-3.385925293E-1
3.308757794E0,5.397987366E-1,8.960151672E-1,-3.257751465E-1
3.313762677E0,5.365943909E-1,1.038742065E0,-3.150939941E-1
3.318767560E0,5.173683167E-1,1.106967926E0,-3.045463562E-1
3.323802960E0,4.940032959E-1,1.093082428E0,-3.045463562E-1
3.328807843E0,4.694366455E-1,1.008968353E0,-3.097534180E-1
3.333812726E0,4.503440857E-1,8.726501465E-1,-3.150939941E-1
3.338817609E0,4.610252380E-1,6.894683838E-1,-3.172302246E-1
3.343822491E0,5.036163330E-1,5.008125305E-1,-3.247070312E-1
3.348857892E0,5.590248108E-1,3.176307678E-1,-3.450012207E-1
3.353862775E0,5.813217163E-1,1.535415649E-1,-3.471374512E-1
3.358867657E0,5.494117737E-1,4.058837891E-2,-3.567504883E-1
3.363872540E0,4.897308350E-1,-9.346008301E-4,-3.694343567E-1
3.368877423E0,4.460716248E-1,-3.070831299E-3,-3.801155090E-1
3.373912823E0,4.193687439E-1,1.935958862E-2,-3.854560852E-1
3.378917706E0,3.842544556E-1,6.835937500E-2,-3.790473938E-1
3.383922589E0,3.405952454E-1,1.397895813E-1,-3.747749329E-1
3.388927472E0,2.905273438E-1,2.303123474E-1,-3.779792786E-1
3.393932355E0,2.180290222E-1,3.463363647E-1,-3.886604309E-1
3.398937237E0,1.178932190E-1,5.008125305E-1,-4.089546204E-1
3.403972638E0,-1.335144043E-3,6.946754456E-1,-4.451370239E-1
3.408977521E0,-1.260375977E-1,8.938789368E-1,-4.781150818E-1
3.413982403E0,-2.538108826E-1,1.044082642E0,-5.048179626E-1
3.418987286E0,-3.678321838E-1,1.101627350E0,-5.196380615E-1
3.423992169E0,-4.615592957E-1,1.038742065E0,-5.260467529E-1
3.429027569E0,-5.212402344E-1,8.726501465E-1,-5.281829834E-1
3.434032452E0,-5.403327942E-1,6.361961365E-1,-5.420684814E-1
3.439037335E0,-5.201721191E-1,3.548812866E-1,-5.686378479E-1
3.444042218E0,-4.562187195E-1,9.920120239E-2,-6.272506714E-1
3.449047101E0,-3.571510315E-1,-8.932113647E-2,-6.837272644E-1
3.454082501E0,-2.420616150E-1,-2.065467834E-1,-7.040214539E-1
3.459087384E0,-1.345825195E-1,-2.288436890E-1,-7.199096680E-1
3.464092267E0,-7.596969604E-2,-1.745033264E-1,-7.295227051E-1
3.469097150E0,-8.131027222E-2,-5.941390991E-2,-7.295227051E-1
3.474102032E0,-1.292419434E-1,8.651733398E-2,-7.199096680E-1
3.479106915E0,-2.080154419E-1,2.142906189E-1,-6.997489929E-1
3.484142316E0,-2.910614014E-1,2.878570557E-1,-6.805229187E-1
3.489147198E0,-3.539466858E-1,2.835845947E-1,-6.464767456E-1
3.494152081E0,-3.890609741E-1,1.907920837E-1,-5.910682678E-1
3.499156964E0,-3.879928589E-1,4.272460938E-2,-5.153656006E-1
3.504161847E0,-3.646278381E-1,-1.212310791E-1,-4.248428345E-1
3.509197247E0,-3.337860107E-1,-2.725028992E-1,-3.204345703E-1
3.514202130E0,-3.006744385E-1,-3.833198547E-1,-2.044105530E-1
3.519207013E0,-2.751731873E-1,-4.823875427E-1,-8.184432983E-2
3.524211896E0,-2.762413025E-1,-5.857276917E-1,5.447387695E-2
3.529216778E0,-3.188323975E-1,-6.486129761E-1,1.886558533E-1
3.534252179E0,-4.018783569E-1,-6.591606140E-1,3.272438049E-1
3.539257062E0,-5.223083496E-1,-6.325912476E-1,4.518127441E-1
3.544261944E0,-6.703758240E-1,-5.729103088E-1,5.551528931E-1
3.549266827E0,-8.280563354E-1,-5.196380615E-1,6.297874451E-1
3.554271710E0,-9.846687317E-1,-5.142974854E-1,6.723785400E-1
3.559307110E0,-1.129531860E0,-5.654335022E-1,6.830596924E-1
3.564311993E0,-1.245555878E0,-6.550216675E-1,6.670379639E-1
3.569316876E0,-1.310577393E0,-7.592964172E-1,6.169700623E-1
3.574321759E0,-1.324462891E0,-8.446121216E-1,5.285835266E-1
3.579326642E0,-1.291351318E0,-9.073638916E-1,4.327201843E-1
3.584331525E0,-1.207237244E0,-9.830665588E-1,3.644943237E-1
3.589366925E0,-1.094284058E0,-1.085338593E0,3.336524963E-1
3.594371808E0,-9.622383118E-1,-1.203632355E0,3.283119202E-1
3.599376691E0,-8.321952820E-1,-1.305770874E0,3.368568420E-1
3.604381573E0,-7.268524170E-1,-1.373996735E0,3.580856323E-1
3.609386456E0,-6.426048279E-1,-1.439018250E0,3.974723816E-1
3.614421857E0,-5.777168274E-1,-1.517791748E0,4.667663574E-1
3.619426739E0,-5.244445801E-1,-1.587085724E0,5.615615845E-1
3.624431622E0,-4.934692383E-1,-1.630744934E0,6.734466553E-1
3.629436505E0,-4.934692383E-1,-1.636085510E0,7.884025574E-1
3.634441388E0,-5.297851562E-1,-1.597766876E0,9.013557434E-1
3.639446271E0,-5.968093872E-1,-1.522064209E0,1.017513275E0
3.644481671E0,-6.862640381E-1,-1.425132751E0,1.125125885E0
3.649486554E0,-7.843971252E-1,-1.348495483E0,1.208171844E0
3.654491437E0,-8.854675293E-1,-1.296291351E0,1.278533936E0
3.659496319E0,-9.888076782E-1,-1.258907318E0,1.336078644E0
3.664501202E0,-1.106033325E0,-1.228065491E0,1.374397278E0
3.669536603E0,-1.225395203E0,-1.207904816E0,1.407375336E0
3.674541485E0,-1.331939697E0,-1.202564240E0,1.437149048E0
3.679546368E0,-1.422462463E0,-1.231269836E0,1.454238892E0
3.684551251E0,-1.483078003E0,-1.271724701E0,1.473464966E0
3.689556134E0,-1.527938843E0,-1.286678314E0,1.482009888E0
3.694591534E0,-1.563053131E0,-1.277065277E0,1.473464966E0
3.699596417E0,-1.570529938E0,-1.259975433E0,1.461715698E0
3.704601300E0,-1.555576324E0,-1.245155334E0,1.441421509E0
3.709606183E0,-1.521530151E0,-1.255702972E0,1.412715912E0
3.714611066E0,-1.466121674E0,-1.293087006E0,1.370124817E0
3.719615948E0,-1.394691467E0,-1.344223022E0,1.317920685E0
3.724651349E0,-1.310577393E0,-1.393222809E0,1.259307861E0
3.729656232E0,-1.221122742E0,-1.443290710E0,1.197490692E0
3.734661114E0,-1.129531860E0,-1.488018036E0,1.147422791E0
3.739665997E0,-1.039943695E0,-1.525268555E0,1.102695465E0
3.744670880E0,-9.536933899E-1,-1.555175781E0,1.054763794E0
3.749706280E0,-8.695793152E-1,-1.580677032E0,9.993553162E-1
3.754711163E0,-7.863998413E-1,-1.600971222E0,9.407424927E-1
3.759716046E0,-7.161712646E-1,-1.615791321E0,8.811950684E-1
3.764720929E0,-6.607627869E-1,-1.623268127E0,8.268547058E-1
3.769725812E0,-6.203079224E-1,-1.626472473E0,7.767868042E-1
3.774761212E0,-5.968093872E-1,-1.620063782E0,7.331275940E-1
3.779766095E0,-5.882644653E-1,-1.590290070E0,7.000160217E-1
3.784770978E0,-5.914688110E-1,-1.532745361E0,6.745147705E-1
3.789775860E0,-5.989456177E-1,-1.446495056E0,6.606292725E-1
3.794780743E0,-5.978775024E-1,-1.343154907E0,6.542205811E-1
3.799785626E0,-5.882644653E-1,-1.238746643E0,6.691741943E-1
3.804821027E0,-5.691719055E-1,-1.146087646E0,7.064247131E-1
3.809825909E0,-5.392646790E-1,-1.086406708E0,7.629013062E-1
3.814830792E0,-4.966735840E-1,-1.084270477E0,8.311271667E-1
3.819835675E0,-4.327201843E-1,-1.151428223E0,9.077644348E-1
3.824840558E0,-3.337860107E-1,-1.266384125E0,9.950828552E-1
3.829875958E0,-2.101516724E-1,-1.387882233E0,1.085739136E0
3.834880841E0,-9.613037109E-2,-1.497631073E0,1.158103943E0
3.839885724E0,-3.471374512E-3,-1.599903107E0,1.195354462E0
3.844890607E0,7.209777832E-2,-1.689357758E0,1.209239960E0
3.849895489E0,1.264381409E-1,-1.724472046E0,1.182670593E0
3.854930890E0,1.531410217E-1,-1.684017181E0,1.112308502E0
3.859935773E0,1.595497131E-1,-1.562519073E0,1.038742065E0
3.864940655E0,1.499366760E-1,-1.370792389E0,9.642410278E-1
3.869945538E0,1.339149475E-1,-1.134338379E0,8.981513977E-1
3.874950421E0,1.148223877E-1,-8.936119080E-1,8.641052246E-1
3.879955304E0,1.094818115E-1,-6.837272644E-1,8.576965332E-1
3.884990704E0,1.285743713E-1,-5.281829834E-1,8.619689941E-1
3.889995587E0,1.818466187E-1,-4.430007935E-1,8.865356445E-1
3.895000470E0,2.659606934E-1,-4.248428345E-1,9.344673157E-1
3.900005353E0,3.587532043E-1,-4.259109497E-1,1.005764008E0
3.905010235E0,4.225730896E-1,-3.865242004E-1,1.090946198E0
3.910045636E0,4.321861267E-1,-2.555465698E-1,1.173057556E0
3.915050519E0,3.917312622E-1,-4.352569580E-2,1.249694824E0
3.920055402E0,3.054809570E-1,1.950645447E-1,1.328601837E0
3.925060284E0,1.925277710E-1,4.017448425E-1,1.406307220E0
3.930065167E0,6.889343262E-2,5.572891235E-1,1.480941772E0
3.935100568E0,-4.819869995E-2,6.659698486E-1,1.552238464E0
3.940105450E0,-1.494026184E-1,7.213783264E-1,1.590557098E0
3.945110333E0,-2.324485779E-1,7.639694214E-1,1.570396423E0
3.950115216E0,-2.910614014E-1,8.427429199E-1,1.577873230E0
3.955120099E0,-3.496742249E-1,9.908103943E-1,1.652374268E0
3.960124982E0,-4.072189331E-1,1.154899597E0,1.635417938E0
3.965160382E0,-4.391288757E-1,1.256103516E0,1.516056061E0
3.970165265E0,-4.243087769E-1,1.188945770E0,1.293354034E0
3.975170148E0,-3.571510315E-1,9.621047974E-1,1.020717621E0
3.980175030E0,-2.261734009E-1,5.966758728E-1,7.969474792E-1
3.985179913E0,-2.162933350E-2,2.014732361E-1,6.638336182E-1
3.990215314E0,2.000045776E-1,-1.691627502E-1,5.839920044E-1
3.995220196E0,4.567527771E-1,-5.207061768E-1,5.583572388E-1
4.000225079E0,8.104324341E-1,-9.287261963E-1,5.966758728E-1
4.005229962E0,1.223659515E0,-1.331405640E0,5.733108521E-1
4.010234845E0,1.584815979E0,-1.693630219E0,4.220390320E-1
4.015239728E0,1.806449890E0,-1.979084015E0,1.918601990E-1
4.020275128E0,1.916065216E0,-2.134628296E0,-5.834579468E-2
4.025280011E0,1.961994171E0,-2.135696411E0,-2.459335327E-1
4.030284894E0,1.923542023E0,-1.987628937E0,-3.567504883E-1
4.035289777E0,1.793632507E0,-1.719131470E0,-4.120254517E-1
4.040294659E0,1.576271057E0,-1.326065063E0,-4.089546204E-1
4.045330060E0,1.272659302E0,-8.157730103E-1,-3.567504883E-1
4.050334943E0,8.924102783E-1,-2.235031128E-1,-2.757072449E-1
4.055339825E0,4.897308350E-1,4.049491882E-1,-1.883888245E-1
4.060344708E0,1.084136963E-1,9.876060486E-1,-9.359359741E-2
4.065349591E0,-2.420616150E-1,1.477737427E0,-9.479522705E-3
4.070354474E0,-5.255126953E-1,1.836624146E0,6.835937500E-2
4.075359357E0,-7.247161865E-1,1.988964081E0,1.439285278E-1
4.080394757E0,-8.535575867E-1,1.975212097E0,1.982688904E-1
4.085399640E0,-8.940124512E-1,1.892032623E0,2.153587341E-1
4.090404523E0,-8.567619324E-1,1.718463898E0,2.078819275E-1
4.095409405E0,-7.512855530E-1,1.459579468E0,1.907920837E-1
4.100414288E0,-5.925369263E-1,1.137943268E0,1.749038696E-1
4.105419171E0,-3.933334351E-1,8.054924011E-1,1.610183716E-1
4.110424054E0,-1.622200012E-1,4.753112793E-1,1.471328735E-1
4.115428937E0,8.384704590E-2,1.781082153E-1,1.301765442E-1
4.120433819E0,3.192329407E-1,-8.932113647E-2,1.162910461E-1
4.125469220E0,5.173683167E-1,-2.927970886E-1,1.077461243E-1
4.130504620E0,6.527519226E-1,-3.811836243E-1,1.077461243E-1
4.135509503E0,7.208442688E-1,-3.343200684E-1,1.184272766E-1
4.140514386E0,7.347297668E-1,-1.490020752E-1,1.301765442E-1
4.145519269E0,7.038879395E-1,1.524734497E-1,1.387214661E-1
4.150524152E0,6.313896179E-1,5.146980286E-1,1.387214661E-1
4.155529034E0,5.397987366E-1,8.715820312E-1,1.205635071E-1
4.160533917E0,4.321861267E-1,1.174125671E0,8.865356445E-2
4.165538800E0,3.309822083E-1,1.392421722E0,4.592895508E-2
4.170543683E0,2.575492859E-1,1.483078003E0,9.746551514E-3
4.175579083E0,2.137565613E-1,1.426601410E0,-7.343292236E-3
4.180583966E0,1.914596558E-1,1.252899170E0,-1.468658447E-2
4.185588849E0,1.743698120E-1,1.010036469E0,-3.604888916E-2
4.190593732E0,1.488685608E-1,7.607650757E-1,-5.634307861E-2
4.195629132E0,9.559631348E-2,5.626296997E-1,-7.116317749E-2
4.200634015E0,1.775741577E-2,4.421997070E-1,-7.863998413E-2
4.205638898E0,-7.169723511E-2,4.209709167E-1,-7.436752319E-2
4.210643780E0,-1.579475403E-1,4.965400696E-1,-5.634307861E-2
4.215648663E0,-2.367210388E-1,6.233787537E-1,-2.643585205E-2
4.220653546E0,-3.124237061E-1,7.468795776E-1,1.615524292E-2
4.225688946E0,-3.849220276E-1,8.609008789E-1,6.088256836E-2
4.230693829E0,-4.508781433E-1,9.653091431E-1,8.758544922E-2
4.235698712E0,-5.073547363E-1,1.054763794E0,9.172439575E-2
4.240703595E0,-5.574226379E-1,1.130466461E0,7.369995117E-2
4.245708478E0,-5.957412720E-1,1.183738708E0,4.272460938E-2
4.250713360E0,-6.128311157E-1,1.195354462E0,-7.343292236E-3
4.255748761E0,-5.957412720E-1,1.180534363E0,-9.572982788E-2
4.260784161E0,-5.381965637E-1,1.141014099E0,-2.065467834E-1
4.265789044E0,-4.498100281E-1,1.084671021E0,-2.981376648E-1
4.270793927E0,-3.316497803E-1,1.028194427E0,-3.608894348E-1
4.275798810E0,-1.877212524E-1,9.897422791E-1,-4.195022583E-1
4.280803693E0,-3.231048584E-2,9.886741638E-1,-4.781150818E-1
4.285839093E0,1.020050049E-1,1.016445160E0,-5.260467529E-1
4.290843976E0,2.010726929E-1,1.072921753E0,-5.207061768E-1
4.295848859E0,2.787780762E-1,1.162376404E0,-4.877281189E-1
4.300853741E0,3.363227844E-1,1.305103302E0,-4.738426208E-1
4.305858624E0,3.778457642E-1,1.470260620E0,-4.952049255E-1
4.310894025E0,4.066848755E-1,1.623668671E0,-5.538177490E-1
4.315898907E0,4.204368591E-1,1.755714417E0,-6.112289429E-1
4.320903790E0,4.077529907E-1,1.896305084E0,-6.133651733E-1
4.325908673E0,3.703689575E-1,2.053985596E0,-5.611610413E-1
4.330913556E0,3.140258789E-1,2.215938568E0,-5.048179626E-1
4.335948956E0,2.586174011E-1,2.345848083E0,-4.642295837E-1
4.340953839E0,2.212333679E-1,2.426891327E0,-4.494094849E-1
4.345958722E0,2.117538452E-1,2.455596924E0,-4.515457153E-1
4.350963605E0,2.180290222E-1,2.463073730E0,-4.578208923E-1
4.355968487E0,2.372550964E-1,2.500324249E0,-4.599571228E-1
4.361003888E0,2.702331543E-1,2.547187805E0,-4.738426208E-1
4.366008771E0,3.288459778E-1,2.592983246E0,-4.887962341E-1
4.371013653E0,3.970718384E-1,2.628231049E0,-5.089569092E-1
4.376018536E0,4.620933533E-1,2.647323608E0,-5.164337158E-1
4.381023419E0,5.419349670E-1,2.652664185E0,-5.089569092E-1
4.386028302E0,6.207084656E-1,2.662277222E0,-4.941368103E-1
4.391063702E0,6.559562683E-1,2.634639740E0,-4.620933533E-1
4.396068585E0,6.399345398E-1,2.556800842E0,-4.162979126E-1
4.401073468E0,5.823898315E-1,2.523822784E0,-3.747749329E-1
4.406078351E0,5.025482178E-1,2.535572052E0,-3.396606445E-1
4.411083234E0,4.045486450E-1,2.603664398E0,-3.045463562E-1
4.416088116E0,2.851867676E-1,2.720890045E0,-2.596855164E-1
4.421123517E0,1.606178284E-1,2.886981964E0,-2.065467834E-1
4.426128400E0,4.018783569E-2,3.068161011E0,-1.415252686E-1
4.431133282E0,-5.140304565E-2,3.166160583E0,-8.718490601E-2
4.436138165E0,-1.174926758E-1,3.187389374E0,-5.420684814E-2
4.441173566E0,-1.835823059E-1,3.141593933E0,-3.498077393E-2
4.446178448E0,-2.559471130E-1,3.063888550E0,-1.895904541E-2
4.451183331E0,-3.231048584E-1,2.941322327E0,9.746551514E-3
4.456188214E0,-3.646278381E-1,2.731571198E0,5.020141602E-2
4.461193097E0,-3.763771057E-1,2.416210175E0,6.301879883E-2
4.466197980E0,-3.785133362E-1,2.056121826E0,4.379272461E-2
4.471233380E0,-3.806495667E-1,1.688556671E0,3.431320190E-2
4.476238263E0,-3.795814514E-1,1.341285706E0,1.935958862E-2
4.481243146E0,-3.785133362E-1,1.043014526E0,-8.411407471E-3
4.486248028E0,-3.933334351E-1,7.948112488E-1,-2.429962158E-2
4.491252911E0,-4.157638550E-1,6.137657166E-1,-4.459381104E-2
4.496288312E0,-4.423332214E-1,4.881286621E-1,-6.261825562E-2
4.501293194E0,-4.647636414E-1,3.858566284E-1,-7.329940796E-2
4.506298077E0,-4.701042175E-1,2.857208252E-1,-7.436752319E-2
4.511302960E0,-4.690361023E-1,1.866531372E-1,-7.329940796E-2
4.516307843E0,-4.679679871E-1,9.185791016E-2,-7.009506226E-2
4.521343243E0,-4.765129089E-1,-5.207061768E-3,-6.689071655E-2
4.526317609E0,-4.913330078E-1,-8.398056030E-2,-7.009506226E-2
4.531353009E0,-5.191040039E-1,-1.490020752E-1,-7.863998413E-2
4.536357892E0,-5.542182922E-1,-2.076148987E-1,-9.466171265E-2
4.541362775E0,-5.851936340E-1,-2.309799194E-1,-1.064109802E-1
4.546367657E0,-6.085586548E-1,-2.448654175E-1,-1.287078857E-1
4.551403058E0,-6.426048279E-1,-2.639579773E-1,-1.564788818E-1
4.556407941E0,-6.862640381E-1,-2.575492859E-1,-1.777076721E-1
4.561412823E0,-7.257843018E-1,-2.363204956E-1,-1.937294006E-1
4.566417706E0,-7.480812073E-1,-2.213668823E-1,-2.118873596E-1
4.571422589E0,-7.502174377E-1,-2.224349976E-1,-2.256393433E-1
4.576457989E0,-7.352638245E-1,-2.267074585E-1,-2.288436890E-1
4.581462872E0,-7.022857666E-1,-2.448654175E-1,-2.149581909E-1
4.586467755E0,-6.468772888E-1,-2.660942078E-1,-1.819801331E-1
4.591472638E0,-5.830574036E-1,-2.970695496E-1,-1.447296143E-1
4.596477521E0,-5.191040039E-1,-3.321838379E-1,-1.169586182E-1
4.601512921E0,-4.615592957E-1,-3.779792786E-1,-9.679794312E-2
4.606517804E0,-4.189682007E-1,-4.152297974E-1,-8.398056030E-2
4.611522687E0,-4.072189331E-1,-4.515457153E-1,-8.291244507E-2
4.616527569E0,-4.380607605E-1,-5.005455017E-1,-9.572982788E-2
4.621532452E0,-5.073547363E-1,-5.559539795E-1,-1.297760010E-1
4.626567853E0,-6.203079224E-1,-5.910682678E-1,-1.798439026E-1
4.631572735E0,-7.662391663E-1,-6.112289429E-1,-2.384567261E-1
4.636577618E0,-9.196472168E-1,-6.347274780E-1,-3.024101257E-1
4.641582501E0,-1.069850922E0,-6.623649597E-1,-3.588867188E-1
4.646587384E0,-1.201896667E0,-6.815910339E-1,-4.089546204E-1
4.651592267E0,-1.313781738E0,-6.912040710E-1,-4.558181763E-1
4.656627667E0,-1.394691467E0,-6.890678406E-1,-5.037498474E-1
4.661632550E0,-1.438350677E0,-6.858634949E-1,-5.559539795E-1
4.666637433E0,-1.442623138E0,-6.890678406E-1,-6.112289429E-1
4.671642316E0,-1.408576965E0,-6.986808777E-1,-6.539535522E-1
4.676647198E0,-1.331939697E0,-7.455444336E-1,-6.612968445E-1
4.681652081E0,-1.205101013E0,-8.658409119E-1,-6.144332886E-1
4.686687482E0,-1.029396057E0,-1.077861786E0,-5.570220947E-1
4.691692364E0,-8.131027222E-1,-1.327133179E0,-5.324554443E-1
4.696697247E0,-5.968093872E-1,-1.578540802E0,-5.377960205E-1
4.701702130E0,-4.146957397E-1,-1.800174713E0,-5.591583252E-1
4.706707013E0,-2.846527100E-1,-1.970539093E0,-5.900001526E-1
4.711742413E0,-2.251052856E-1,-2.104721069E0,-6.240463257E-1
4.716747296E0,-2.367210388E-1,-2.217674255E0,-6.591606140E-1
4.721752179E0,-3.113555908E-1,-2.313537598E0,-6.922721863E-1
4.726757062E0,-4.327201843E-1,-2.403125763E0,-7.167053223E-1
4.731792462E0,-5.946731567E-1,-2.508468628E0,-7.199096680E-1
4.736797345E0,-7.801246643E-1,-2.617149353E0,-7.188415527E-1
4.741802228E0,-9.686470032E-1,-2.718353271E0,-7.124328613E-1
4.746807110E0,-1.140079498E0,-2.825965881E0,-6.976127625E-1
4.751811993E0,-1.291351318E0,-2.921829224E0,-6.890678406E-1
4.756816876E0,-1.413917542E0,-3.021965027E0,-6.858634949E-1
4.761821759E0,-1.520462036E0,-3.106079102E0,-6.922721863E-1
4.766857159E0,-1.620597839E0,-3.142395020E0,-7.072257996E-1
4.771862042E0,-1.728210449E0,-3.112487793E0,-7.177734375E-1
4.776866925E0,-1.818733215E0,-3.075237274E0,-7.135009766E-1
4.781871808E0,-1.870937347E0,-3.078441620E0,-7.040214539E-1
4.786876691E0,-1.891098022E0,-3.110351562E0,-6.837272644E-1
4.791881573E0,-1.878414154E0,-3.150939941E0,-6.645011902E-1
4.796916974E0,-1.858119965E0,-3.157215118E0,-6.570243835E-1
4.801921857E0,-1.861324310E0,-3.084850311E0,-6.443405151E-1
4.806926739E0,-1.877346039E0,-2.967624664E0,-6.208419800E-1
4.811931622E0,-1.891098022E0,-2.837715149E0,-5.964088440E-1
4.816967023E0,-1.890029907E0,-2.741851807E0,-5.591583252E-1
4.821971905E0,-1.881484985E0,-2.649192810E0,-5.217742920E-1
4.826976788E0,-1.862392426E0,-2.574558258E0,-4.920005798E-1
4.831981671E0,-1.819801331E0,-2.555332184E0,-4.578208923E-1
4.836986554E0,-1.752643585E0,-2.585239410E0,-4.216384888E-1
4.841991437E0,-1.681213379E0,-2.622489929E0,-3.801155090E-1
4.846996319E0,-1.593894958E0,-2.691783905E0,-3.450012207E-1
4.852001202E0,-1.512985229E0,-2.786579132E0,-3.257751465E-1
4.857036603E0,-1.441555023E0,-2.874965668E0,-3.024101257E-1
4.862041485E0,-1.364917755E0,-2.967624664E0,-2.746391296E-1
4.867046368E0,-1.278667450E0,-3.075237274E0,-2.714347839E-1
4.872051251E0,-1.196556091E0,-3.178577423E0,-2.831840515E-1
4.877086652E0,-1.124191284E0,-3.248939514E0,-2.970695496E-1
4.882091534E0,-1.066646576E0,-3.273372650E0,-3.088188171E-1
4.887096417E0,-1.021919250E0,-3.258419037E0,-3.045463562E-1
4.892101300E0,-9.973526001E-1,-3.223304749E0,-2.895927429E-1
4.897106183E0,-9.814643860E-1,-3.182849884E0,-2.831840515E-1
4.902111066E0,-9.782600403E-1,-3.131713867E0,-2.810478210E-1
4.907146466E0,-9.686470032E-1,-3.090190887E0,-2.725028992E-1
4.912151349E0,-9.526252747E-1,-3.059215546E0,-2.650260925E-1
4.917156232E0,-9.366035461E-1,-3.018760681E0,-2.575492859E-1
4.922161114E0,-9.132385254E-1,-2.970829010E0,-2.512741089E-1
4.927165997E0,-8.727836609E-1,-2.922897339E0,-2.502059937E-1
4.932201398E0,-8.353996277E-1,-2.874965668E0,-2.566146851E-1
4.937206280E0,-7.896041870E-1,-2.820625305E0,-2.714347839E-1
4.942211163E0,-7.204437256E-1,-2.779102325E0,-2.863883972E-1
4.947216046E0,-6.309890747E-1,-2.752532959E0,-3.013420105E-1
4.952220929E0,-5.297851562E-1,-2.721557617E0,-3.140258789E-1
4.957256329E0,-4.348564148E-1,-2.666149139E0,-3.225708008E-1
4.962261212E0,-3.486061096E-1,-2.575626373E0,-3.268432617E-1
4.967266095E0,-2.644920349E-1,-2.470149994E0,-3.321838379E-1
4.972270978E0,-1.866531372E-1,-2.356128693E0,-3.460693359E-1
4.977306378E0,-1.110839844E-1,-2.231559753E0,-3.608894348E-1
4.982311261E0,-4.179000854E-2,-2.110061646E0,-3.747749329E-1
4.987316144E0,1.882553101E-2,-1.983356476E0,-3.886604309E-1
4.992321027E0,6.462097168E-2,-1.858654022E0,-4.046821594E-1
4.997325909E0,9.666442871E-2,-1.740493774E0,-4.130935669E-1
5.002361310E0,1.189613342E-1,-1.636085510E0,-4.100227356E-1
5.007366193E0,1.232337952E-1,-1.543426514E0,-4.130935669E-1
5.012371075E0,1.126861572E-1,-1.454906464E0,-4.344558716E-1
5.017375958E0,8.811950684E-2,-1.370792389E0,-4.568862915E-1
5.022380841E0,5.727767944E-2,-1.295223236E0,-4.823875427E-1
5.027416241E0,2.416610718E-2,-1.219520569E0,-4.984092712E-1
5.032421124E0,-1.842498779E-2,-1.138610840E0,-5.153656006E-1
5.037426007E0,-6.849288940E-2,-1.051292419E0,-5.367279053E-1
5.042430890E0,-1.249694824E-1,-9.713172913E-1,-5.591583252E-1
5.047435773E0,-1.782417297E-1,-9.191131592E-1,-5.857276917E-1
5.052440655E0,-2.293777466E-1,-8.882713318E-1,-6.155014038E-1
5.057476056E0,-2.773094177E-1,-8.669090271E-1,-6.475448608E-1
5.062480939E0,-3.209686279E-1,-8.615684509E-1,-6.879997253E-1
5.067485821E0,-3.635597229E-1,-8.669090271E-1,-7.423400879E-1
5.072490704E0,-4.061508179E-1,-8.818626404E-1,-8.020210266E-1
5.077495587E0,-4.498100281E-1,-9.137725830E-1,-8.562278748E-1
5.082500470E0,-4.966735840E-1,-9.511566162E-1,-9.095001221E-1
5.087535870E0,-5.446052551E-1,-9.873390198E-1,-9.606361389E-1
5.092540753E0,-5.978775024E-1,-9.862709045E-1,-1.013908386E0
5.097545636E0,-6.479454041E-1,-9.574317932E-1,-1.055564880E0
5.102550519E0,-6.958770752E-1,-9.223175049E-1,-1.088542938E0
5.107585919E0,-7.363319397E-1,-8.807945251E-1,-1.110839844E0
5.112590802E0,-7.683753967E-1,-8.626365662E-1,-1.117248535E0
5.117595685E0,-7.949447632E-1,-8.562278748E-1,-1.117248535E0
5.122600568E0,-8.205795288E-1,-8.542251587E-1,-1.118316650E0
5.127605450E0,-8.407402039E-1,-8.754539490E-1,-1.111907959E0
5.132640851E0,-8.567619324E-1,-9.191131592E-1,-1.088542938E0
5.137645734E0,-8.706474304E-1,-9.691810608E-1,-1.060771942E0
5.142650616E0,-8.854675293E-1,-1.004428864E0,-1.029930115E0
5.147655499E0,-8.993530273E-1,-1.020317078E0,-9.958839417E-1
5.152660382E0,-9.100341797E-1,-1.026725769E0,-9.627723694E-1
5.157665265E0,-9.175109863E-1,-1.032066345E0,-9.351348877E-1
5.162700665E0,-9.292602539E-1,-1.022453308E0,-9.064292908E-1
5.167705548E0,-9.344673157E-1,-9.937477112E-1,-8.797264099E-1
5.172710431E0,-9.376716614E-1,-9.627723694E-1,-8.542251587E-1
5.177715314E0,-9.430122375E-1,-9.105682373E-1,-8.414077759E-1
5.182720196E0,-9.451484680E-1,-8.211135864E-1,-8.317947388E-1
5.187755597E0,-9.398078918E-1,-7.040214539E-1,-8.232498169E-1
5.192760480E0,-9.249877930E-1,-5.867958069E-1,-8.200454712E-1
5.197765362E0,-9.025573730E-1,-4.823875427E-1,-8.147048950E-1
5.202770245E0,-8.631706238E-1,-3.918647766E-1,-8.062934875E-1
5.207775128E0,-8.056259155E-1,-3.150939941E-1,-7.998847961E-1
5.212780011E0,-7.341957092E-1,-2.320480347E-1,-8.041572571E-1
5.217815411E0,-6.564903259E-1,-1.393890381E-1,-8.115005493E-1
5.222820294E0,-5.552864075E-1,-4.245758057E-2,-8.125686646E-1
5.227825177E0,-4.412651062E-1,6.408691406E-2,-8.136367798E-1
5.232830060E0,-3.156280518E-1,1.652908325E-1,-8.179092407E-1
5.237834943E0,-1.930618286E-1,2.451324463E-1,-8.147048950E-1
5.242870343E0,-5.994796753E-2,3.026771545E-1,-8.009529114E-1
5.247875226E0,9.559631348E-2,3.251075745E-1,-7.774543762E-1
5.252880109E0,2.628898621E-1,3.463363647E-1,-7.476806641E-1
5.257884991E0,4.311180115E-1,3.805160522E-1,-7.199096680E-1
5.262889874E0,5.962753296E-1,4.241752625E-1,-6.944084167E-1
5.267925275E0,7.475471497E-1,4.785156250E-1,-6.687736511E-1
5.272930157E0,8.806610107E-1,5.455398560E-1,-6.379318237E-1
5.277935040E0,9.850692749E-1,6.265830994E-1,-6.017494202E-1
5.282939923E0,1.065979004E0,7.224464417E-1,-5.643653870E-1
5.287944806E0,1.125659943E0,8.332633972E-1,-5.271148682E-1
5.292980206E0,1.160907745E0,9.418106079E-1,-4.898643494E-1
5.297985089E0,1.160907745E0,1.026058197E0,-4.642295837E-1
5.302989972E0,1.135272980E0,1.087875366E0,-4.515457153E-1
5.307994855E0,1.090545654E0,1.143150330E0,-4.440689087E-1
5.312999737E0,1.035137177E0,1.184806824E0,-4.472732544E-1
5.318004620E0,9.840011597E-1,1.224193573E0,-4.578208923E-1
5.323040021E0,9.307289124E-1,1.257171631E0,-4.685020447E-1
5.328044903E0,8.774566650E-1,1.276397705E0,-4.834556580E-1
5.333049786E0,8.295249939E-1,1.278533936E0,-4.984092712E-1
5.338054669E0,7.762527466E-1,1.257171631E0,-5.121612549E-1
5.343059552E0,7.208442688E-1,1.220989227E0,-5.249786377E-1
5.348094952E0,6.675720215E-1,1.162376404E0,-5.345916748E-1
5.353099835E0,6.153678894E-1,1.080398560E0,-5.335235596E-1
5.358104718E0,5.674362183E-1,9.876060486E-1,-5.303192139E-1
5.363109601E0,5.248451233E-1,9.013557434E-1,-5.356597900E-1
5.368114484E0,4.833221436E-1,8.247184753E-1,-5.345916748E-1
5.373119366E0,4.471397400E-1,7.511520386E-1,-5.367279053E-1
5.378124249E0,4.161643982E-1,6.809234619E-1,-5.420684814E-1
5.383129132E0,3.885269165E-1,6.073570251E-1,-5.367279053E-1
5.388164532E0,3.714370728E-1,5.403327942E-1,-5.303192139E-1
5.393169415E0,3.576850891E-1,4.753112793E-1,-5.228424072E-1
5.398174298E0,3.512763977E-1,4.049491882E-1,-5.175018311E-1
5.403179181E0,3.544807434E-1,3.421974182E-1,-5.164337158E-1
5.408184064E0,3.598213196E-1,3.058815002E-1,-5.217742920E-1
5.413219464E0,3.671646118E-1,2.825164795E-1,-5.228424072E-1
5.418224347E0,3.810501099E-1,2.739715576E-1,-5.185699463E-1
5.423229230E0,3.981399536E-1,2.782440186E-1,-5.058860779E-1
5.428234112E0,4.193687439E-1,2.846527100E-1,-4.952049255E-1
5.433238995E0,4.514122009E-1,2.878570557E-1,-4.823875427E-1
5.438274396E0,4.886627197E-1,2.771759033E-1,-4.652976990E-1
5.443279278E0,5.333900452E-1,2.632904053E-1,-4.430007935E-1
5.448284161E0,5.877304077E-1,2.483367920E-1,-4.205703735E-1
5.453289044E0,6.548881531E-1,2.303123474E-1,-3.993415833E-1
5.458293927E0,7.272529602E-1,2.239036560E-1,-3.843879700E-1
5.463298810E0,8.040237427E-1,2.313804626E-1,-3.640937805E-1
5.468334210E0,8.827972412E-1,2.419281006E-1,-3.503417969E-1
5.473339093E0,9.627723694E-1,2.558135986E-1,-3.385925293E-1
5.478343976E0,1.039409637E0,2.654266357E-1,-3.375244141E-1
5.483348859E0,1.105499268E0,2.675628662E-1,-3.428649902E-1
5.488353741E0,1.161975861E0,2.664947510E-1,-3.439331055E-1
5.493389142E0,1.206703186E0,2.643585205E-1,-3.471374512E-1
5.498394025E0,1.235408783E0,2.558135986E-1,-3.492736816E-1
5.503398907E0,1.248226166E0,2.504730225E-1,-3.546142578E-1
5.508403790E0,1.243953705E0,2.483367920E-1,-3.608894348E-1
5.513408673E0,1.222591400E0,2.462005615E-1,-3.726387024E-1
5.518444073E0,1.188545227E0,2.451324463E-1,-3.865242004E-1
5.523448956E0,1.141681671E0,2.367210388E-1,-3.897285461E-1
5.528453839E0,1.088409424E0,2.206993103E-1,-3.875923157E-1
5.533458722E0,1.018047333E0,2.068138123E-1,-3.865242004E-1
5.538463605E0,9.520912170E-1,2.004051208E-1,-3.843879700E-1
5.543499005E0,8.902740479E-1,1.929283142E-1,-3.801155090E-1
5.548503888E0,8.337974548E-1,1.877212524E-1,-3.801155090E-1
5.553508771E0,7.826614380E-1,1.918601990E-1,-3.790473938E-1
5.558513653E0,7.368659973E-1,2.142906189E-1,-3.769111633E-1
5.563518536E0,7.017517090E-1,2.536773682E-1,-3.737068176E-1
5.568523419E0,6.761169434E-1,2.973365784E-1,-3.726387024E-1
5.573558819E0,6.591606140E-1,3.506088257E-1,-3.694343567E-1
5.578563702E0,6.452751160E-1,4.081535339E-1,-3.556823730E-1
5.583568585E0,6.367301941E-1,4.592895508E-1,-3.353881836E-1
5.588573468E0,6.303215027E-1,4.986763000E-1,-3.140258789E-1
5.593578351E0,6.249809265E-1,5.392646790E-1,-2.927970886E-1
5.598613751E0,6.164360046E-1,5.839920044E-1,-2.714347839E-1
5.603618634E0,6.090927124E-1,6.319236755E-1,-2.523422241E-1
5.608623517E0,5.984115601E-1,6.830596924E-1,-2.288436890E-1
5.613658917E0,5.898666382E-1,7.352638245E-1,-2.128219604E-1
5.618663800E0,5.866622925E-1,7.948112488E-1,-1.969337463E-1
5.623668683E0,5.813217163E-1,8.609008789E-1,-1.819801331E-1
5.628673566E0,5.749130249E-1,9.237861633E-1,-1.586151123E-1
5.633678448E0,5.695724487E-1,9.866714478E-1,-1.340484619E-1
5.638683331E0,5.632972717E-1,1.044082642E0,-1.085472107E-1
5.643718732E0,5.622291565E-1,1.098423004E0,-8.077621460E-2
5.648723614E0,5.695724487E-1,1.148490906E0,-5.207061768E-2
5.653728497E0,5.813217163E-1,1.182670593E0,-2.429962158E-2
5.658733380E0,5.994796753E-1,1.188945770E0,8.678436279E-3
5.663738263E0,6.260490417E-1,1.170921326E0,3.110885620E-2
5.668773663E0,6.580924988E-1,1.132602692E0,5.126953125E-2
5.673778546E0,6.867980957E-1,1.072921753E0,6.408691406E-2
5.678783429E0,7.135009766E-1,9.950828552E-1,6.835937500E-2
5.683788312E0,7.379341125E-1,9.002876282E-1,7.156372070E-2
5.688793194E0,7.539558411E-1,7.799911499E-1,7.583618164E-2
5.693828595E0,7.625007629E-1,6.308555603E-1,9.172439575E-2
5.698833478E0,7.666397095E-1,4.689025879E-1,1.120185852E-1
5.703838360E0,7.666397095E-1,2.994728088E-1,1.408576965E-1
5.708843243E0,7.655715942E-1,1.333808899E-1,1.770401001E-1
5.713848126E0,7.655715942E-1,-2.857208252E-2,2.089500427E-1
5.718853009E0,7.687759399E-1,-1.734352112E-1,2.356529236E-1
5.723888409E0,7.794570923E-1,-2.981376648E-1,2.472686768E-1
5.728893292E0,7.880020142E-1,-4.036140442E-1,2.472686768E-1
5.733898175E0,8.072280884E-1,-4.909324646E-1,2.472686768E-1
5.738903058E0,8.305931091E-1,-5.600929260E-1,2.494049072E-1
5.743907941E0,8.572959900E-1,-6.197738647E-1,2.643585205E-1
5.748943341E0,9.041595459E-1,-6.591606140E-1,3.101539612E-1
5.753948224E0,9.775924683E-1,-6.869316101E-1,4.038810730E-1
5.758953107E0,1.083068848E0,-7.102966309E-1,5.455398560E-1
5.763957989E0,1.225795746E0,-7.209777832E-1,7.436752319E-1
5.768962872E0,1.411113739E0,-7.348632812E-1,9.982872009E-1
5.773998273E0,1.641292572E0,-7.625007629E-1,1.307239532E0
5.779003155E0,1.901245117E0,-8.136367798E-1,1.680145264E0
5.784008038E0,2.168540955E0,-8.701133728E-1,2.088031769E0
5.789012921E0,2.404060364E0,-8.786582947E-1,2.478027344E0
5.794017804E0,2.571220398E0,-8.232498169E-1,2.775230408E0
5.799022687E0,2.625560760E0,-6.794548035E-1,2.915821075E0
5.804058087E0,2.527561188E0,-3.886604309E-1,2.835845947E0
5.809062970E0,2.258129120E0,8.678436279E-3,2.424755096E0
5.814067853E0,1.819133759E0,5.200386047E-1,1.730213165E0
5.819072735E0,1.274795532E0,1.099491119E0,9.216499329E-1
5.824077618E0,7.060241699E-1,1.685485840E0,1.535415649E-1
5.829113019E0,1.722335815E-1,2.237167358E0,-4.515457153E-1
5.834117902E0,-2.815818787E-1,2.726230621E0,-8.296585083E-1
5.839122784E0,-6.074905396E-1,3.131046295E0,-9.415435791E-1
5.844127667E0,-8.163070679E-1,3.470840454E0,-9.105682373E-1
5.849132550E0,-9.419441223E-1,3.747749329E0,-8.572959900E-1
5.854167950E0,-9.973526001E-1,3.925724030E0,-8.030891418E-1
5.859172833E0,-9.930801392E-1,3.984203339E0,-7.540893555E-1
5.864177716E0,-9.430122375E-1,3.928928375E0,-7.135009766E-1
5.869182599E0,-8.674430847E-1,3.775520325E0,-6.922721863E-1
5.874187482E0,-7.726478577E-1,3.532657623E0,-6.912040710E-1
5.879192364E0,-6.703758240E-1,3.227977753E0,-7.113647461E-1
5.884227765E0,-5.766487122E-1,2.891254425E0,-7.519531250E-1
5.889232648E0,-4.956054688E-1,2.529163361E0,-8.105659485E-1
5.894237530E0,-4.285812378E-1,2.157325745E0,-8.775901794E-1
5.899242413E0,-3.774452209E-1,1.825008392E0,-9.500885010E-1
5.904247296E0,-3.389930725E-1,1.546897888E0,-1.009769440E0
5.909282696E0,-3.102874756E-1,1.326465607E0,-1.057567596E0
5.914287579E0,-2.931976318E-1,1.163444519E0,-1.089611053E0
5.919292462E0,-2.878570557E-1,1.027126312E0,-1.106700897E0
5.924297345E0,-2.985382080E-1,9.237861633E-1,-1.106700897E0
5.929302228E0,-3.199005127E-1,8.427429199E-1,-1.092815399E0
5.934337628E0,-3.592872620E-1,7.693099976E-1,-1.069316864E0
5.939342511E0,-4.104232788E-1,7.053565979E-1,-1.037406921E0
5.944347394E0,-4.775810242E-1,6.319236755E-1,-1.000156403E0
5.949352277E0,-5.552864075E-1,5.498123169E-1,-9.638404846E-1
5.954357159E0,-6.361961365E-1,4.742431641E-1,-9.265899658E-1
5.959362042E0,-7.236480713E-1,3.985404968E-1,-9.053611755E-1
5.964397443E0,-8.141708374E-1,3.080177307E-1,-8.861351013E-1
5.969402325E0,-8.993530273E-1,2.014732361E-1,-8.520889282E-1
5.974407208E0,-9.771919250E-1,9.386062622E-2,-8.020210266E-1
5.979412091E0,-1.035671234E0,-3.818511963E-2,-7.380676270E-1
5.984416974E0,-1.087875366E0,-1.830482483E-1,-6.687736511E-1
5.989452374E0,-1.128463745E0,-3.587532043E-1,-5.814552307E-1
5.994457257E0,-1.159305573E0,-5.452728271E-1,-4.887962341E-1
5.999462140E0,-1.181735992E0,-7.348632812E-1,-3.993415833E-1
6.004467023E0,-1.183872223E0,-9.372711182E-1,-3.034782410E-1
6.009471905E0,-1.178531647E0,-1.122589111E0,-2.128219604E-1
6.014507306E0,-1.163578033E0,-1.270656586E0,-1.425933838E-1
6.019512189E0,-1.136875153E0,-1.398563385E0,-8.718490601E-2
6.024517071E0,-1.107101440E0,-1.484813690E0,-4.779815674E-2
6.029521954E0,-1.073055267E0,-1.528472900E0,-3.070831299E-2
6.034526837E0,-1.028327942E0,-1.534881592E0,-2.643585205E-2
6.039531720E0,-9.793281555E-1,-1.511383057E0,-3.391265869E-2
6.044567120E0,-9.292602539E-1,-1.454906464E0,-4.673004150E-2
6.049572003E0,-8.813285828E-1,-1.371860504E0,-5.207061768E-2
6.054576886E0,-8.321952820E-1,-1.265316010E0,-5.313873291E-2
6.059581769E0,-7.822608948E-1,-1.154632568E0,-4.352569580E-2
6.064586652E0,-7.332611084E-1,-1.038475037E0,-2.964019775E-2
6.069622052E0,-6.841278076E-1,-9.223175049E-1,-1.161575317E-2
6.074626935E0,-6.415367126E-1,-8.179092407E-1,1.401901245E-2
6.079631818E0,-6.032180786E-1,-7.316589355E-1,5.233764648E-2
6.084636700E0,-5.723762512E-1,-6.730461121E-1,1.034736633E-1
6.089641583E0,-5.456733704E-1,-6.518173218E-1,1.706314087E-1
6.094676984E0,-5.233764648E-1,-6.677055359E-1,2.515411377E-1
6.099681866E0,-5.041503906E-1,-7.295227051E-1,3.347206116E-1
6.104686749E0,-4.859924316E-1,-8.456802368E-1,4.188346863E-1
6.109691632E0,-4.775810242E-1,-1.020317078E0,4.774475098E-1
6.114696515E0,-4.765129089E-1,-1.234474182E0,4.954719543E-1
6.119701398E0,-4.754447937E-1,-1.467723846E0,4.539489746E-1
6.124736798E0,-4.754447937E-1,-1.710586548E0,3.666305542E-1
6.129741681E0,-4.668998718E-1,-1.932220459E0,2.536773682E-1
6.134746564E0,-4.530143738E-1,-2.118606567E0,1.428604126E-1
6.139751446E0,-4.296493530E-1,-2.266674042E0,5.981445312E-2
6.144756329E0,-4.061508179E-1,-2.361469269E0,2.149581909E-2
6.149791730E0,-3.922653198E-1,-2.380695343E0,5.874633789E-2
6.154796612E0,-3.922653198E-1,-2.321014404E0,1.514053345E-1
6.159801495E0,-4.136276245E-1,-2.193241119E0,2.675628662E-1
6.164806378E0,-4.551506042E-1,-2.014198303E0,3.762435913E-1
6.169811261E0,-5.126953125E-1,-1.791629791E0,4.667663574E-1
6.174846661E0,-5.723762512E-1,-1.548767090E0,5.476760864E-1
6.179851544E0,-6.299209595E-1,-1.304836273E0,6.137657166E-1
6.184856427E0,-6.639671326E-1,-1.082134247E0,6.723785400E-1
6.189861310E0,-6.650352478E-1,-9.010887146E-1,7.213783264E-1
6.194866193E0,-6.309890747E-1,-7.710456848E-1,7.468795776E-1
6.199901593E0,-5.531501770E-1,-6.741142273E-1,7.447433472E-1
6.204906476E0,-4.359245300E-1,-5.857276917E-1,7.256507874E-1
6.209911359E0,-2.857208252E-1,-5.142974854E-1,6.978797913E-1
6.214916241E0,-1.046752930E-1,-4.620933533E-1,6.745147705E-1
6.219921124E0,9.346008301E-2,-4.312515259E-1,6.563568115E-1
6.224926007E0,3.054809570E-1,-4.098892212E-1,6.414031982E-1
6.229961407E0,5.344581604E-1,-4.014778137E-1,6.319236755E-1
6.234966290E0,7.677078247E-1,-3.982734680E-1,6.126976013E-1
6.239971173E0,1.002159119E0,-3.940010071E-1,5.733108521E-1
6.244976056E0,1.224727631E0,-3.705024719E-1,4.997444153E-1
6.249980939E0,1.427135468E0,-3.417968750E-1,4.028129578E-1
6.255016339E0,1.608314514E0,-3.097534180E-1,2.984046936E-1
6.260021222E0,1.755313873E0,-2.735710144E-1,2.014732361E-1
6.265026105E0,1.868133545E0,-2.256393433E-1,1.269721985E-1
6.270030987E0,1.961994171E0,-1.937294006E-1,7.263183594E-2
6.275035870E0,2.030086517E0,-1.937294006E-1,2.683639526E-2
6.280071271E0,2.083358765E0,-2.320480347E-1,-2.002716064E-3
6.285076153E0,2.106857300E0,-3.524780273E-1,-1.255035400E-2
6.290081036E0,2.075881958E0,-5.707740784E-1,-3.925323486E-2
6.295085919E0,2.008724213E0,-8.499526978E-1,-8.718490601E-2
6.300090802E0,1.913928986E0,-1.155700684E0,-1.436614990E-1
6.305095685E0,1.793632507E0,-1.459178925E0,-1.980018616E-1
6.310131085E0,1.656246185E0,-1.724472046E0,-2.373886108E-1
6.315135968E0,1.515522003E0,-1.915130615E0,-2.544784546E-1
6.320140851E0,1.383476257E0,-2.016334534E0,-2.650260925E-1
6.325145734E0,1.280136108E0,-1.994037628E0,-2.714347839E-1
6.330153789E0,1.214046478E0,-1.855449677E0,-2.885246277E-1
6.335189190E0,1.159839630E0,-1.696834564E0,-3.056144714E-1
6.340194073E0,1.093750000E0,-1.551971436E0,-3.066825867E-1
6.345198955E0,1.016979218E0,-1.397495270E0,-2.917289734E-1
6.350203838E0,9.200477600E-1,-1.228065491E0,-2.757072449E-1
6.355208721E0,7.933425903E-1,-1.047019958E0,-2.566146851E-1
6.360244121E0,6.527519226E-1,-8.531570435E-1,-2.491378784E-1
6.365249004E0,5.068206787E-1,-6.719779968E-1,-2.628898621E-1
6.370253887E0,3.682327271E-1,-5.249786377E-1,-2.938652039E-1
6.375258770E0,2.319145203E-1,-4.323196411E-1,-3.779792786E-1
6.380263653E0,5.941390991E-2,-4.014778137E-1,-4.920005798E-1
6.385268535E0,-1.600837708E-1,-3.918647766E-1,-6.006813049E-1
6.390303936E0,-4.050827026E-1,-3.385925293E-1,-6.879997253E-1
6.395308819E0,-6.586265564E-1,-2.427291870E-1,-7.348632812E-1
6.400313701E0,-8.961486816E-1,-1.383209229E-1,-7.316589355E-1
6.405318584E0,-1.090011597E0,-1.000022888E-1,-6.847953796E-1
6.410323467E0,-1.239147186E0,-1.351165771E-1,-6.240463257E-1
6.415358867E0,-1.346759796E0,-2.022743225E-1,-5.782508850E-1
6.420363750E0,-1.414985657E0,-2.810478210E-1,-5.516815186E-1
6.425368633E0,-1.459712982E0,-3.875923157E-1,-5.356597900E-1
6.430373516E0,-1.484146118E0,-5.142974854E-1,-5.228424072E-1
6.435378399E0,-1.499099731E0,-6.315231323E-1,-5.196380615E-1
6.440413799E0,-1.505508423E0,-7.369995117E-1,-5.239105225E-1
6.445418682E0,-1.499099731E0,-8.285903931E-1,-5.410003662E-1
6.450423565E0,-1.487350464E0,-9.095001221E-1,-5.600929260E-1
6.455428448E0,-1.469326019E0,-9.766578674E-1,-5.739784241E-1
6.460433330E0,-1.446895599E0,-1.041679382E0,-5.921363831E-1
6.465438213E0,-1.418190002E0,-1.111907959E0,-6.187057495E-1
6.470473614E0,-1.386146545E0,-1.189746857E0,-6.486129761E-1
6.475478496E0,-1.352100372E0,-1.270656586E0,-6.783866882E-1
6.480483379E0,-1.321258545E0,-1.353836060E0,-7.018852234E-1
6.485488262E0,-1.286010742E0,-1.436882019E0,-7.188415527E-1
6.490493145E0,-1.246623993E0,-1.522064209E0,-7.220458984E-1
6.495528545E0,-1.208305359E0,-1.613655090E0,-7.092285156E-1
6.500533428E0,-1.168918610E0,-1.706314087E0,-6.666374207E-1
6.505538311E0,-1.124191284E0,-1.792697906E0,-5.932044983E-1
6.510543194E0,-1.074123383E0,-1.884288788E0,-4.941368103E-1
6.515548076E0,-1.021919250E0,-1.979084015E0,-3.694343567E-1
6.520583477E0,-9.611701965E-1,-2.066402435E0,-2.288436890E-1
6.525588360E0,-8.929443359E-1,-2.137832642E0,-8.398056030E-2
6.530593242E0,-8.205795288E-1,-2.198581696E0,6.195068359E-2
6.535598125E0,-7.374000549E-1,-2.240104675E0,1.982688904E-1
6.540603008E0,-6.522178650E-1,-2.262401581E0,3.186988831E-1
6.545607891E0,-5.627632141E-1,-2.269878387E0,4.327201843E-1
6.550643291E0,-4.615592957E-1,-2.265605927E0,5.243110657E-1
6.555648174E0,-3.507423401E-1,-2.236900330E0,5.891990662E-1
6.560653057E0,-2.324485779E-1,-2.174015045E0,6.319236755E-1
6.565657940E0,-1.078796387E-1,-2.082424164E0,6.510162354E-1
6.570662823E0,2.630233765E-2,-1.971607208E0,6.361961365E-1
6.575698223E0,1.659584045E-1,-1.834220886E0,6.041526794E-1
6.580703106E0,3.022766113E-1,-1.669063568E0,5.540847778E-1
6.585707989E0,4.385948181E-1,-1.465587616E0,4.901313782E-1
6.590712871E0,5.622291565E-1,-1.213111877E0,4.145622253E-1
6.595748272E0,6.739807129E-1,-9.180450439E-1,3.325843811E-1
6.600753155E0,7.762527466E-1,-5.867958069E-1,2.451324463E-1
6.605758037E0,8.615684509E-1,-2.267074585E-1,1.631546021E-1
6.610762920E0,9.307289124E-1,1.567459106E-1,9.813308716E-2
6.615767803E0,9.872055054E-1,5.476760864E-1,4.699707031E-2
6.620772686E0,1.046886444E0,9.344673157E-1,1.201629639E-3
6.625777569E0,1.103363037E0,1.302967072E0,-4.352569580E-2
6.630812969E0,1.166114807E0,1.625804901E0,-9.145736694E-2
6.635817852E0,1.234340668E0,1.884689331E0,-1.372528076E-1
6.640822735E0,1.305770874E0,2.058258057E0,-1.766395569E-1
6.645827617E0,1.372795105E0,2.135028839E0,-2.108192444E-1
6.650832500E0,1.461181641E0,2.129688263E0,-2.437973022E-1
6.655867901E0,1.547565460E0,2.074279785E0,-2.512741089E-1
6.660872783E0,1.638088226E0,1.966667175E0,-2.363204956E-1
6.665877666E0,1.748905182E0,1.789760590E0,-2.149581909E-1
6.670882549E0,1.875610352E0,1.539554596E0,-1.873207092E-1
6.675887432E0,2.015132904E0,1.237010956E0,-1.468658447E-1
6.680922832E0,2.157993317E0,8.917427063E-1,-9.038925171E-2
6.685927715E0,2.295379639E0,5.285835266E-1,-1.468658447E-2
6.690932598E0,2.422084808E0,1.620864868E-1,7.797241211E-2
6.695937481E0,2.509536743E0,-1.937294006E-1,1.716995239E-1
6.700942364E0,2.561607361E0,-5.110931396E-1,2.504730225E-1
6.705977764E0,2.572288513E0,-7.646369934E-1,3.144264221E-1
6.710982647E0,2.538242340E0,-9.584999084E-1,3.858566284E-1
6.715987530E0,2.457332611E0,-1.101360321E0,4.731750488E-1
6.720992412E0,2.348651886E0,-1.173725128E0,5.850601196E-1
6.725997295E0,2.220745087E0,-1.163043976E0,7.192420959E-1
6.731002178E0,2.088699341E0,-1.077861786E0,8.598327637E-1
6.736037578E0,1.967201233E0,-9.436798096E-1,1.005764008E0
6.741042461E0,1.846904755E0,-7.572937012E-1,1.149559021E0
6.746047344E0,1.722202301E0,-5.058860779E-1,1.275329590E0
6.751052227E0,1.604042053E0,-1.990699768E-1,1.384010315E0
6.756057110E0,1.481475830E0,1.845169067E-1,1.454238892E0
6.761092510E0,1.349430084E0,6.606292725E-1,1.489353180E0
6.766097393E0,1.226863861E0,1.144218445E0,1.475601196E0
6.771102276E0,1.116046906E0,1.578941345E0,1.405239105E0
6.776107158E0,1.015911102E0,1.959190369E0,1.286010742E0
6.781112041E0,9.328651428E-1,2.287235260E0,1.119785309E0
6.786116924E0,8.731842041E-1,2.549324036E0,9.259223938E-1
6.791152325E0,8.380699158E-1,2.762413025E0,7.192420959E-1
6.796157207E0,8.050918579E-1,2.901935577E0,5.040168762E-1
6.801162090E0,7.666397095E-1,2.923297882E0,3.005409241E-1
6.806166973E0,7.325935364E-1,2.776298523E0,1.387214661E-1
6.811171856E0,7.165718079E-1,2.485504150E0,5.340576172E-2
6.816207256E0,7.251167297E-1,2.107257843E0,3.217697144E-2
6.821212139E0,7.507514954E-1,1.716327667E0,3.952026367E-2
6.826217022E0,7.815933228E-1,1.336078644E0,5.233764648E-2
6.831221905E0,7.858657837E-1,9.642410278E-1,8.117675781E-2
6.836226787E0,7.592964172E-1,6.116294861E-1,1.259040833E-1
6.841262188E0,7.038879395E-1,2.761077881E-1,1.716995239E-1
6.846267071E0,6.142997742E-1,-4.138946533E-2,2.046775818E-1
6.851271953E0,4.950714111E-1,-3.321838379E-1,2.100181580E-1
6.856276836E0,3.480720520E-1,-5.878639221E-1,1.875877380E-1
6.861281719E0,1.807785034E-1,-8.093643188E-1,1.460647583E-1
6.866286602E0,7.209777832E-3,-9.894752502E-1,8.865356445E-2
6.871322002E0,-1.654243469E-1,-1.118316650E0,2.042770386E-2
6.876326885E0,-3.241729736E-1,-1.197223663E0,-5.100250244E-2
6.881331768E0,-4.775810242E-1,-1.240882874E0,-1.180267334E-1
6.886336651E0,-6.149673462E-1,-1.254634857E0,-1.830482483E-1
6.891341533E0,-7.416725159E-1,-1.247291565E0,-2.373886108E-1
6.896376934E0,-8.567619324E-1,-1.228065491E0,-2.831840515E-1
6.901381817E0,-9.590339661E-1,-1.195087433E0,-3.066825867E-1
6.906386700E0,-1.043148041E0,-1.151428223E0,-3.172302246E-1
6.911391582E0,-1.116714478E0,-1.104564667E0,-3.204345703E-1
6.916396465E0,-1.177463531E0,-1.049156189E0,-3.193664551E-1
6.921431866E0,-1.218986511E0,-9.852027893E-1,-3.129577637E-1
6.926436748E0,-1.254100800E0,-9.201812744E-1,-3.045463562E-1
6.931441631E0,-1.272258759E0,-8.456802368E-1,-2.927970886E-1
6.936446514E0,-1.279735565E0,-7.689094543E-1,-2.799797058E-1
6.941451397E0,-1.278667450E0,-6.944084167E-1,-2.650260925E-1
6.946486797E0,-1.270122528E0,-6.197738647E-1,-2.470016479E-1
6.951491680E0,-1.251964569E0,-5.431365967E-1,-2.309799194E-1
6.956496563E0,-1.228599548E0,-4.823875427E-1,-2.138900757E-1
6.961501446E0,-1.197624207E0,-4.333877563E-1,-1.969337463E-1
6.966506328E0,-1.162509918E0,-3.843879700E-1,-1.830482483E-1
6.971511211E0,-1.119918823E0,-3.396606445E-1,-1.766395569E-1
6.976546612E0,-1.078395844E0,-3.086853027E-1,-1.723670959E-1
6.981551494E0,-1.037807465E0,-2.767753601E-1,-1.648902893E-1
6.986556377E0,-1.002693176E0,-2.320480347E-1,-1.638221741E-1
6.991561260E0,-9.686470032E-1,-1.745033264E-1,-1.606178284E-1
6.996566143E0,-9.324645996E-1,-1.084136963E-1,-1.596832275E-1
7.001601543E0,-9.036254883E-1,-4.779815674E-2,-1.575469971E-1
7.006606426E0,-8.685112000E-1,1.935958862E-2,-1.543426514E-1
7.011611309E0,-8.311271667E-1,9.078979492E-2,-1.457977295E-1
7.016616192E0,-7.917404175E-1,1.610183716E-1,-1.297760010E-1
7.021621075E0,-7.406044006E-1,2.408599854E-1,-1.032066345E-1
7.026656475E0,-6.926727295E-1,3.315162659E-1,-6.475448608E-2
7.031661358E0,-6.383323669E-1,4.188346863E-1,-1.361846924E-2
7.036666241E0,-5.777168274E-1,4.986763000E-1,5.233764648E-2
7.041671123E0,-5.084228516E-1,5.669021606E-1,1.312446594E-1
7.046676006E0,-4.359245300E-1,6.244468689E-1,2.217674255E-1
7.051680889E0,-3.518104553E-1,6.691741943E-1,3.261756897E-1
7.056716289E0,-2.666282654E-1,6.946754456E-1,4.380607605E-1
7.061721172E0,-1.909255981E-1,7.074928284E-1,5.360603333E-1
7.066726055E0,-1.260375977E-1,7.096290588E-1,6.052207947E-1
7.071730938E0,-7.703781128E-2,7.032203674E-1,6.381988525E-1
7.076735821E0,-4.819869995E-2,6.914710999E-1,6.372642517E-1
7.081771221E0,-4.072189331E-2,6.755828857E-1,6.126976013E-1
7.086776104E0,-4.819869995E-2,6.563568115E-1,5.647659302E-1
7.091780987E0,-7.810592651E-2,6.319236755E-1,5.104255676E-1
7.096785869E0,-1.217651367E-1,6.052207947E-1,4.603576660E-1
7.101790752E0,-1.761054993E-1,5.754470825E-1,4.220390320E-1
7.106826153E0,-2.399253845E-1,5.444717407E-1,3.985404968E-1
7.111831035E0,-3.124237061E-1,4.954719543E-1,3.921318054E-1
7.116835918E0,-3.859901428E-1,4.337882996E-1,4.017448425E-1
7.121840801E0,-4.519462585E-1,3.591537476E-1,4.231071472E-1
7.126845684E0,-5.084228516E-1,2.707672119E-1,4.454040527E-1
7.131850567E0,-5.584907532E-1,1.631546021E-1,4.678344727E-1
7.136885967E0,-5.968093872E-1,4.699707031E-2,4.922676086E-1
7.141890850E0,-6.224441528E-1,-7.757186890E-2,5.168342590E-1
7.146895733E0,-6.372642517E-1,-2.086830139E-1,5.487442017E-1
7.151900616E0,-6.372642517E-1,-3.556823730E-1,5.807876587E-1
7.156905498E0,-6.256484985E-1,-5.164337158E-1,6.137657166E-1
7.161940899E0,-6.000137329E-1,-6.879997253E-1,6.424713135E-1
7.166945782E0,-5.478096008E-1,-8.647727966E-1,6.723785400E-1
7.171950664E0,-4.765129089E-1,-1.042747498E0,6.914710999E-1
7.176955547E0,-3.879928589E-1,-1.228065491E0,6.989479065E-1
7.181960430E0,-2.835845947E-1,-1.417655945E0,6.968116760E-1
7.186995830E0,-1.632881165E-1,-1.592426300E0,6.723785400E-1
7.192000713E0,-2.483367920E-2,-1.735153198E0,6.159019470E-1
7.197005596E0,1.157569885E-1,-1.837425232E0,5.285835266E-1
7.202010479E0,2.415275574E-1,-1.888561249E0,4.220390320E-1
7.207015362E0,3.587532043E-1,-1.874675751E0,2.962684631E-1
7.212020244E0,4.620933533E-1,-1.772403717E0,1.855850220E-1
7.217055645E0,5.494117737E-1,-1.586017609E0,1.259040833E-1
7.222060528E0,6.112289429E-1,-1.343154907E0,1.088142395E-1
7.227065410E0,6.463432312E-1,-1.066112518E0,1.066780090E-1
7.232070293E0,6.527519226E-1,-7.646369934E-1,1.024055481E-1
7.237075176E0,6.367301941E-1,-4.781150818E-1,9.813308716E-2
7.242110576E0,6.112289429E-1,-2.192306519E-1,8.758544922E-2
7.247115459E0,5.952072144E-1,-1.789093018E-2,5.981445312E-2
7.252120342E0,6.037521362E-1,9.706497192E-2,3.431320190E-2
7.257125225E0,6.367301941E-1,1.162910461E-1,9.746551514E-3
7.262130108E0,6.900024414E-1,6.301879883E-2,-2.109527588E-2
7.267165508E0,7.475471497E-1,-2.002716064E-2,-6.155014038E-2
7.272170391E0,7.858657837E-1,-1.126861572E-1,-1.105499268E-1
7.277175274E0,8.050918579E-1,-2.097511292E-1,-1.638221741E-1
7.282180157E0,8.029556274E-1,-3.268432617E-1,-2.256393433E-1
7.287185039E0,7.858657837E-1,-4.620933533E-1,-2.885246277E-1
7.292189922E0,7.614326477E-1,-6.251144409E-1,-3.332519531E-1
7.297225323E0,7.272529602E-1,-8.020210266E-1,-3.619575500E-1
7.302230205E0,6.835937500E-1,-9.723854065E-1,-3.886604309E-1
7.307235088E0,6.228446960E-1,-1.127929688E0,-4.301834106E-1
7.312239971E0,5.430030823E-1,-1.264247894E0,-4.717063904E-1
7.317244854E0,4.588890076E-1,-1.392154694E0,-5.142974854E-1
7.322280254E0,3.619575500E-1,-1.511383057E0,-5.750465393E-1
7.327285137E0,2.575492859E-1,-1.629676819E0,-6.432723999E-1
7.332290020E0,1.445960999E-1,-1.745834351E0,-7.241821289E-1
7.337294903E0,2.523422241E-2,-1.854381561E0,-8.125686646E-1
7.342299785E0,-1.004028320E-1,-1.958789825E0,-8.904075623E-1
7.347335186E0,-2.356529236E-1,-2.034492493E0,-9.490203857E-1
7.352340069E0,-3.699684143E-1,-2.092037201E0,-9.841346741E-1
7.357344951E0,-4.988098145E-1,-2.137832642E0,-1.002292633E0
7.362349834E0,-6.203079224E-1,-2.181491852E0,-1.012840271E0
7.367354717E0,-7.321929932E-1,-2.191104889E0,-9.948158264E-1
7.372359600E0,-8.353996277E-1,-2.148513794E0,-9.276580811E-1
7.377395000E0,-9.344673157E-1,-2.072811127E0,-8.317947388E-1
7.382399883E0,-1.031398773E0,-1.979084015E0,-7.369995117E-1
7.387404766E0,-1.139011383E0,-1.824607849E0,-6.251144409E-1
7.392409649E0,-1.247692108E0,-1.630744934E0,-4.866600037E-1
7.397414532E0,-1.360645294E0,-1.410179138E0,-3.215026855E-1
7.402449932E0,-1.486282349E0,-1.173725128E0,-1.543426514E-1
7.407454815E0,-1.621665955E0,-9.159088135E-1,-1.468658447E-2
7.412459698E0,-1.763324738E0,-6.559562683E-1,8.438110352E-2
7.417464580E0,-1.898574829E0,-4.046821594E-1,1.599502563E-1
7.422469463E0,-2.025413513E0,-1.554107666E-1,2.260398865E-1
7.427504864E0,-2.144641876E0,5.233764648E-2,2.899932861E-1
7.432509746E0,-2.247982025E0,2.004051208E-1,3.452682495E-1
7.437514629E0,-2.340641022E0,3.133583069E-1,3.921318054E-1
7.442519512E0,-2.420616150E0,3.826522827E-1,4.263114929E-1
7.447524395E0,-2.484436035E0,4.081535339E-1,4.496765137E-1
7.452529278E0,-2.527160645E0,3.879928589E-1,4.689025879E-1
7.457564678E0,-2.558002472E0,3.347206116E-1,4.806518555E-1
7.462569561E0,-2.579364777E0,2.643585205E-1,4.817199707E-1
7.467574444E0,-2.594184875E0,1.866531372E-1,4.785156250E-1
7.472579326E0,-2.603797913E0,1.077461243E-1,4.689025879E-1
7.477584209E0,-2.609138489E0,3.751754761E-2,4.560852051E-1
7.482619610E0,-2.601661682E0,-7.343292236E-3,4.411315918E-1
7.487624492E0,-2.579364777E0,-1.361846924E-2,4.166984558E-1
7.492629375E0,-2.546253204E0,5.474090576E-3,3.794479370E-1
7.497634258E0,-2.506866455E0,4.806518555E-2,3.293800354E-1
7.502639141E0,-2.455730438E0,1.120185852E-1,2.632904053E-1
7.507674541E0,-2.393913269E0,1.877212524E-1,1.866531372E-1
7.512679424E0,-2.323684692E0,2.857208252E-1,1.002693176E-1
7.517684307E0,-2.245845795E0,3.899955750E-1,5.474090576E-3
7.522689190E0,-2.163867950E0,4.997444153E-1,-9.893417358E-2
7.527694073E0,-2.074413300E0,6.105613708E-1,-2.044105530E-1
7.532729473E0,-1.978549957E0,7.160377502E-1,-3.097534180E-1
7.537734356E0,-1.877346039E0,8.129692078E-1,-4.152297974E-1
7.542739239E0,-1.776142120E0,8.886718750E-1,-5.110931396E-1
7.547744121E0,-1.676006317E0,9.216499329E-1,-5.878639221E-1
7.552749004E0,-1.587486267E0,9.088325500E-1,-6.443405151E-1
7.557753887E0,-1.517257690E0,8.416748047E-1,-6.805229187E-1
7.562789287E0,-1.453304291E0,7.363319397E-1,-7.040214539E-1
7.567794170E0,-1.396827698E0,6.020164490E-1,-7.092285156E-1
7.572799053E0,-1.347827911E0,4.454040527E-1,-7.092285156E-1
7.577803936E0,-1.311645508E0,2.729034424E-1,-7.029533386E-1
7.582808819E0,-1.280803680E0,9.599685669E-2,-6.976127625E-1
7.587844219E0,-1.258373260E0,-7.757186890E-2,-6.912040710E-1
7.592849102E0,-1.249828339E0,-2.491378784E-1,-6.805229187E-1
7.597853985E0,-1.245555878E0,-4.227066040E-1,-6.677055359E-1
7.602858867E0,-1.242351532E0,-5.964088440E-1,-6.486129761E-1
7.607863750E0,-1.237010956E0,-7.635688782E-1,-6.219100952E-1
7.612899151E0,-1.229667664E0,-9.351348877E-1,-5.825233459E-1
7.617904033E0,-1.216850281E0,-1.107635498E0,-5.345916748E-1
7.622908916E0,-1.191215515E0,-1.256771088E0,-4.813194275E-1
7.627913799E0,-1.159305573E0,-1.396427155E0,-4.248428345E-1
7.632918682E0,-1.125259399E0,-1.547698975E0,-3.662300110E-1
7.637923565E0,-1.078395844E0,-1.686153412E0,-3.129577637E-1
7.642958965E0,-1.005897522E0,-1.799106598E0,-2.628898621E-1
7.647963848E0,-9.025573730E-1,-1.876811981E0,-1.969337463E-1
7.652968731E0,-7.705116272E-1,-1.955585480E0,-1.287078857E-1
7.657973614E0,-6.032180786E-1,-2.013130188E0,-6.048202515E-2
7.662978496E0,-4.061508179E-1,-2.022743225E0,5.474090576E-3
7.667983379E0,-1.909255981E-1,-1.951446533E0,4.592895508E-2
7.673018780E0,1.668930054E-2,-1.785221100E0,4.486083984E-2
7.678023662E0,2.158927917E-1,-1.523132324E0,1.508712769E-2
7.683028545E0,3.938674927E-1,-1.161975861E0,-3.925323486E-2
7.688033428E0,5.472755432E-1,-7.199096680E-1,-1.329803467E-1
7.693068828E0,6.527519226E-1,-2.128219604E-1,-2.288436890E-1
7.698073711E0,6.942749023E-1,3.261756897E-1,-2.917289734E-1
7.703078594E0,6.686401367E-1,8.480834961E-1,-3.056144714E-1
7.708083477E0,5.845260620E-1,1.337146759E0,-2.682304382E-1
7.713088360E0,4.683685303E-1,1.811122894E0,-2.202987671E-1
7.718093242E0,3.427314758E-1,2.275619507E0,-2.170944214E-1
7.723128643E0,2.276420593E-1,2.700595856E0,-2.555465698E-1
7.728133526E0,1.456642151E-1,3.059616089E0,-3.066825867E-1
7.733138408E0,1.030731201E-1,3.339729309E0,-3.450012207E-1
7.738143291E0,1.052093506E-1,3.542137146E0,-3.715705872E-1
7.743148174E0,1.456642151E-1,3.685932159E0,-3.886604309E-1
7.748183575E0,2.169609070E-1,3.761634827E0,-3.940010071E-1
7.753188457E0,3.150939941E-1,3.764839172E0,-3.972053528E-1
7.758193340E0,4.193687439E-1,3.641204834E0,-3.972053528E-1
7.763198223E0,5.216407776E-1,3.382320404E0,-3.854560852E-1
7.768203106E0,6.112289429E-1,3.012752533E0,-3.619575500E-1
7.773238506E0,6.782531738E-1,2.558937073E0,-3.396606445E-1
7.778243389E0,7.070922852E-1,2.061462402E0,-3.077507019E-1
7.783248272E0,6.932067871E-1,1.552238464E0,-2.703666687E-1
7.788253155E0,6.484794617E-1,1.038742065E0,-2.245712280E-1
7.793258037E0,5.887985229E-1,5.232429504E-1,-1.691627502E-1
7.798262920E0,5.280494690E-1,8.678436279E-3,-1.137542725E-1
7.803298321E0,4.715728760E-1,-4.984092712E-1,-5.941390991E-2
7.808303203E0,4.268455505E-1,-9.862709045E-1,-7.343292236E-3
7.813308086E0,3.906631470E-1,-1.450767517E0,3.324508667E-2
7.818312969E0,3.566169739E-1,-1.873607635E0,4.913330078E-2
7.823317852E0,3.256416321E-1,-2.253856659E0,6.515502930E-2
7.828353252E0,3.086853027E-1,-2.596988678E0,9.279251099E-2
7.833358135E0,3.181648254E-1,-2.860012054E0,1.269721985E-1
7.838363018E0,3.470039368E-1,-3.019828796E0,1.567459106E-1
7.843367901E0,4.045486450E-1,-3.115692139E0,1.823806763E-1
7.848372783E0,4.972076416E-1,-3.183917999E0,2.185630798E-1
7.853408184E0,6.132316589E-1,-3.224372864E0,2.739715576E-1
7.858413067E0,7.625007629E-1,-3.204078674E0,3.176307678E-1
7.863417950E0,9.542274475E-1,-3.121032715E0,3.495407104E-1
7.868422832E0,1.199226379E0,-2.956943512E0,3.889274597E-1
7.873427715E0,1.610317230E0,-2.513809204E0,4.199028015E-1
7.878432598E0,2.193107605E0,-1.713790894E0,4.389953613E-1
7.883467998E0,2.773628235E0,-7.924079895E-1,4.656982422E-1
7.888472881E0,3.222103119E0,-2.002716064E-3,5.093574524E-1
7.893477764E0,3.480987549E0,5.679702759E-1,5.487442017E-1
7.898482647E0,3.572578430E0,9.663772583E-1,5.786514282E-1
7.903487530E0,3.543872833E0,1.287078857E0,5.797195435E-1
7.908522930E0,3.397941589E0,1.561851501E0,5.434036255E-1
7.913527813E0,3.139057159E0,1.840896606E0,4.528808594E-1
7.918532696E0,2.808742523E0,2.131824493E0,3.058815002E-1
7.923537578E0,2.457332611E0,2.366142273E0,1.312446594E-1
7.928542461E0,2.101516724E0,2.538642883E0,-2.429962158E-2
7.933577862E0,1.765861511E0,2.639846802E0,-1.468658447E-1
7.938582744E0,1.455974579E0,2.695255280E0,-2.363204956E-1
7.943587627E0,1.182136536E0,2.734775543E0,-3.045463562E-1
7.948592510E0,9.765243530E-1,2.695255280E0,-3.503417969E-1
7.953597393E0,8.391380310E-1,2.590847015E0,-3.865242004E-1
7.958602276E0,7.687759399E-1,2.449188232E0,-4.089546204E-1
7.963607158E0,7.762527466E-1,2.242507935E0,-3.854560852E-1
7.968642559E0,8.380699158E-1,2.007122040E0,-3.150939941E-1
7.973647442E0,9.084320068E-1,1.829280853E0,-2.299118042E-1
7.978652325E0,9.606361389E-1,1.708850861E0,-1.543426514E-1
7.983657207E0,9.936141968E-1,1.591625214E0,-9.038925171E-2
7.988692608E0,9.786605835E-1,1.452102661E0,-4.566192627E-2
7.993697491E0,9.041595459E-1,1.310443878E0,-2.643585205E-2
7.998702373E0,7.912063599E-1,1.178398132E0,-1.255035400E-2
8.003707256E0,6.452751160E-1,1.032466888E0,2.269744873E-3
8.008712139E0,4.790496826E-1,8.609008789E-1,2.042770386E-2
8.013747539E0,2.819824219E-1,6.957435608E-1,4.379272461E-2
8.018752422E0,6.462097168E-2,5.881309509E-1,5.447387695E-2
8.023757305E0,-1.568794250E-1,5.328559875E-1,4.272460938E-2
8.028762188E0,-3.785133362E-1,5.414009094E-1,2.576828003E-2
8.033767071E0,-5.978775024E-1,6.073570251E-1,9.746551514E-3
8.038771953E0,-8.066940308E-1,7.139015198E-1,-2.002716064E-3
8.043807354E0,-9.866714478E-1,8.406066895E-1,-1.161575317E-2
8.048812237E0,-1.133670807E0,9.770584106E-1,-2.216339111E-2
8.053817119E0,-1.244487762E0,1.114444733E0,-3.925323486E-2
8.058822002E0,-1.323394775E0,1.247558594E0,-5.100250244E-2
8.063826885E0,-1.371326447E0,1.340351105E0,-6.155014038E-2
8.068862285E0,-1.383075714E0,1.394557953E0,-6.689071655E-2
8.073867168E0,-1.363849640E0,1.408443451E0,-7.009506226E-2
8.078872051E0,-1.305236816E0,1.391353607E0,-8.291244507E-2
8.083876934E0,-1.207237244E0,1.346626282E0,-1.085472107E-1
8.088881817E0,-1.081600189E0,1.286010742E0,-1.436614990E-1
8.093917217E0,-9.313964844E-1,1.212444305E0,-1.745033264E-1
8.098922100E0,-7.683753967E-1,1.183738708E0,-1.883888245E-1
8.103926983E0,-6.032180786E-1,1.220989227E0,-1.851844788E-1
8.108931866E0,-4.380607605E-1,1.286010742E0,-1.670265198E-1
8.113936748E0,-2.773094177E-1,1.338214874E0,-1.361846924E-1
8.118941631E0,-1.303100586E-1,1.349830627E0,-1.244354248E-1
8.123977032E0,1.348495483E-2,1.296558380E0,-1.233673096E-1
8.128981914E0,1.946640015E-1,1.120853424E0,-1.021385193E-1
8.133986797E0,3.853225708E-1,8.502197266E-1,-6.155014038E-2
8.138991680E0,5.781173706E-1,4.965400696E-1,-9.479522705E-3
8.143996563E0,7.709121704E-1,8.331298828E-2,4.806518555E-2
8.149031963E0,9.382057190E-1,-3.694343567E-1,1.077461243E-1
8.154036846E0,1.046886444E0,-8.232498169E-1,1.610183716E-1
8.159011211E0,1.044750214E0,-1.197223663E0,2.110862732E-1
8.164046612E0,8.924102783E-1,-1.435813904E0,2.643585205E-1
8.169051494E0,6.420707703E-1,-1.539154053E0,3.272438049E-1
8.174086895E0,3.598213196E-1,-1.551971436E0,4.070854187E-1
8.179091778E0,1.392555237E-1,-1.533813477E0,4.785156250E-1
8.184096660E0,2.737045288E-2,-1.506042480E0,5.179023743E-1
8.189101543E0,1.882553101E-2,-1.466655731E0,5.434036255E-1
8.194106426E0,8.918762207E-2,-1.410179138E0,5.572891235E-1
8.199111309E0,2.042770386E-1,-1.317520142E0,5.583572388E-1
8.204146709E0,3.459358215E-1,-1.201496124E0,5.487442017E-1
8.209151592E0,4.940032959E-1,-1.083202362E0,5.328559875E-1
8.214156475E0,6.399345398E-1,-9.723854065E-1,5.072212219E-1
8.219161358E0,7.730484009E-1,-8.722496033E-1,4.742431641E-1
8.224166241E0,8.956146240E-1,-7.710456848E-1,4.305839539E-1
8.229201641E0,9.978866577E-1,-6.858634949E-1,3.910636902E-1
8.234206524E0,1.086273193E0,-6.122970581E-1,3.495407104E-1
8.239211407E0,1.158771515E0,-5.590248108E-1,3.133583069E-1
8.244216289E0,1.215114594E0,-5.281829834E-1,2.994728088E-1
8.249221172E0,1.258907318E0,-5.142974854E-1,2.973365784E-1
8.254256573E0,1.292953491E0,-5.100250244E-1,2.941322327E-1
8.259261455E0,1.311111450E0,-5.239105225E-1,2.835845947E-1
8.264266338E0,1.313114166E0,-5.538177490E-1,2.750396729E-1
8.269271221E0,1.308975220E0,-5.878639221E-1,2.696990967E-1
8.274276104E0,1.300430298E0,-6.229782104E-1,2.664947510E-1
8.279280987E0,1.283340454E0,-6.677055359E-1,2.771759033E-1
8.284316387E0,1.263046265E0,-7.327270508E-1,2.973365784E-1
8.289321270E0,1.235408783E0,-8.349990845E-1,3.527450562E-1
8.294326153E0,1.202430725E0,-9.755897522E-1,4.785156250E-1
8.299331035E0,1.159839630E0,-1.208839417E0,7.384681702E-1
8.304366436E0,1.116046906E0,-1.652107239E0,1.191082001E0
8.309371319E0,1.099090576E0,-2.407264709E0,1.835556030E0
8.314376201E0,1.135272980E0,-3.504486084E0,2.631435394E0
8.319381084E0,1.247158051E0,-4.826545715E0,3.407955170E0
8.324385967E0,1.409111023E0,-6.218833923E0,3.842544556E0
8.329390850E0,1.579475403E0,-7.475872040E0,3.671112061E0
8.334426250E0,1.669998169E0,-8.398323059E0,2.821025848E0
8.339431133E0,1.546497345E0,-8.726501465E0,1.748237610E0
8.344436016E0,1.188545227E0,-8.439846039E0,1.021785736E0
8.349440899E0,6.953430176E-1,-7.754917145E0,7.320594788E-1
8.354445782E0,1.807785034E-1,-6.882534027E0,6.467437744E-1
8.359481182E0,-2.741050720E-1,-5.999336243E0,5.487442017E-1
8.364486065E0,-6.361961365E-1,-5.229225159E0,4.049491882E-1
8.369490948E0,-9.344673157E-1,-4.571933746E0,2.590179443E-1
8.374495830E0,-1.198692322E0,-3.975391388E0,1.397895813E-1
8.379500713E0,-1.427803040E0,-3.434257507E0,4.806518555E-2
8.384505596E0,-1.604576111E0,-2.972965240E0,-2.216339111E-2
8.389540996E0,-1.737689972E0,-2.584171295E0,-9.786605835E-2
8.394545879E0,-1.827278137E0,-2.182559967E0,-1.841163635E-1
8.399550762E0,-1.864528656E0,-1.758518219E0,-2.586174011E-1
8.404555645E0,-1.855983734E0,-1.349563599E0,-3.129577637E-1
8.409560528E0,-1.794166565E0,-9.777259827E-1,-3.353881836E-1
8.414595928E0,-1.683349609E0,-6.539535522E-1,-3.375244141E-1
8.419600811E0,-1.532211304E0,-3.694343567E-1,-3.588867188E-1
8.424605694E0,-1.360645294E0,-1.319122314E-1,-3.972053528E-1
8.429610576E0,-1.180667877E0,4.806518555E-2,-4.387283325E-1
8.434615459E0,-1.009101868E0,1.482009888E-1,-4.749107361E-1
8.439650860E0,-8.706474304E-1,1.674270630E-1,-5.005455017E-1
8.444655742E0,-7.694435120E-1,1.365852356E-1,-5.185699463E-1
8.449660625E0,-7.076263428E-1,7.690429688E-2,-5.377960205E-1
8.454665508E0,-6.905364990E-1,3.337860107E-3,-5.442047119E-1
8.459670391E0,-7.076263428E-1,-7.009506226E-2,-5.410003662E-1
8.464675274E0,-7.523536682E-1,-1.393890381E-1,-5.345916748E-1
8.469710674E0,-8.120346069E-1,-2.044105530E-1,-5.324554443E-1
8.474715557E0,-8.813285828E-1,-2.607536316E-1,-5.356597900E-1
8.479720440E0,-9.579658508E-1,-3.215026855E-1,-5.431365967E-1
8.484725323E0,-1.032466888E0,-3.854560852E-1,-5.527496338E-1
8.489730205E0,-1.107101440E0,-4.504776001E-1,-5.707740784E-1
8.494765606E0,-1.178531647E0,-5.217742920E-1,-5.910682678E-1
8.499770489E0,-1.251964569E0,-5.900001526E-1,-6.112289429E-1
8.504775371E0,-1.320190430E0,-6.422042847E-1,-6.293869019E-1
8.509780254E0,-1.384010315E0,-6.762504578E-1,-6.464767456E-1
8.514785137E0,-1.441555023E0,-6.922721863E-1,-6.602287292E-1
8.519820537E0,-1.489486694E0,-6.954765320E-1,-6.698417664E-1
8.524825420E0,-1.530075073E0,-6.805229187E-1,-6.794548035E-1
8.529830303E0,-1.567325592E0,-6.528854370E-1,-6.922721863E-1
8.534835186E0,-1.592826843E0,-6.197738647E-1,-7.072257996E-1
8.539840069E0,-1.617393494E0,-5.814552307E-1,-7.273864746E-1
8.544844951E0,-1.633281708E0,-5.377960205E-1,-7.519531250E-1
8.549880352E0,-1.637554169E0,-4.994773865E-1,-7.774543762E-1
8.554885235E0,-1.639690399E0,-4.547500610E-1,-8.062934875E-1
8.559890117E0,-1.638622284E0,-4.068183899E-1,-8.392715454E-1
8.564895000E0,-1.631145477E0,-3.556823730E-1,-8.711814880E-1
8.569899883E0,-1.620597839E0,-3.086853027E-1,-9.074974060E-1
8.574935283E0,-1.604576111E0,-2.564811707E-1,-9.436798096E-1
8.579940166E0,-1.584281921E0,-2.065467834E-1,-9.798622131E-1
8.584945049E0,-1.563053131E0,-1.500701904E-1,-1.020317078E0
8.589949932E0,-1.539554596E0,-9.252548218E-2,-1.062908173E0
8.594954815E0,-1.509780884E0,-3.604888916E-2,-1.108703613E0
8.599990215E0,-1.472530365E0,3.004074097E-2,-1.146087646E0
8.604995098E0,-1.435146332E0,9.813308716E-2,-1.182270050E0
8.609999981E0,-1.390419006E0,1.749038696E-1,-1.215248108E0
8.615004864E0,-1.341419220E0,2.558135986E-1,-1.233406067E0
8.620009746E0,-1.293487549E0,3.325843811E-1,-1.233406067E0
8.625045147E0,-1.239147186E0,4.092216492E-1,-1.232337952E0
8.630050030E0,-1.180667877E0,4.806518555E-1,-1.230201721E0
8.635054912E0,-1.116714478E0,5.476760864E-1,-1.219520569E0
8.640059795E0,-1.044216156E0,6.030845642E-1,-1.204700470E0
8.645064678E0,-9.622383118E-1,6.372642517E-1,-1.180133820E0
8.650069561E0,-8.663749695E-1,6.383323669E-1,-1.088542938E0
8.655104961E0,-7.406044006E-1,5.998802185E-1,-7.646369934E-1
8.660109844E0,-5.073547363E-1,4.753112793E-1,-1.586151123E-1
8.665114727E0,-1.324462891E-1,1.855850220E-1,6.297874451E-1
8.670119610E0,3.608894348E-1,-3.715705872E-1,1.479873657E0
8.675124492E0,9.414100647E-1,-1.053428650E0,2.300052643E0
8.680159893E0,1.499633789E0,-1.680812836E0,2.998867035E0
8.685164776E0,1.925678253E0,-2.100582123E0,3.530521393E0
8.690169658E0,2.156925201E0,-2.175083160E0,3.861770630E0
8.695174541E0,2.195243835E0,-1.992969513E0,3.939476013E0
8.700179424E0,2.094039917E0,-1.608314514E0,3.502750397E0
8.705184307E0,1.753177643E0,-1.029930115E0,2.354393005E0
8.710219707E0,9.893417358E-1,-1.190948486E-1,6.287193298E-1
8.715224590E0,-1.036071777E-1,1.147422791E0,-1.158771515E0
8.720229473E0,-1.249828339E0,2.597255707E0,-2.195377350E0
8.725234356E0,-2.305526733E0,4.098224640E0,-2.294445038E0
8.730239239E0,-3.181114197E0,5.420284271E0,-2.014198303E0
8.735274639E0,-3.773517609E0,6.341667175E0,-1.845970154E0
8.740279522E0,-4.134540558E0,6.916980743E0,-1.829948425E0
8.745284405E0,-4.264583588E0,7.098026276E0,-1.865062714E0
8.750289287E0,-4.155902863E0,6.848754883E0,-1.876811981E0
8.755294170E0,-3.862972260E0,6.266098022E0,-1.847038269E0
8.760329571E0,-3.441066742E0,5.506534576E0,-1.782016754E0
8.765334453E0,-2.861614227E0,4.672470093E0,-1.661586761E0
8.770339336E0,-1.995506287E0,3.444137573E0,-1.449699402E0
8.775344219E0,-7.630348206E-1,1.642761230E0,-1.137542725E0
8.780349102E0,3.150939941E-1,2.729034424E-1,-8.562278748E-1
8.785353985E0,8.050918579E-1,-1.789093018E-2,-7.316589355E-1
8.790389385E0,7.539558411E-1,2.611541748E-1,-7.188415527E-1
8.795394268E0,4.492759705E-1,3.463363647E-1,-6.612968445E-1
8.800399151E0,1.403236389E-1,1.109504700E-1,-5.164337158E-1
8.805434551E0,-8.344650269E-2,-2.714347839E-1,-3.683662415E-1
8.810439434E0,-2.315139771E-1,-6.794548035E-1,-2.566146851E-1
8.815444317E0,-3.305816650E-1,-1.069316864E0,-1.723670959E-1
8.820449200E0,-3.965377808E-1,-1.426200867E0,-8.932113647E-2
8.825454082E0,-4.412651062E-1,-1.744766235E0,-9.479522705E-3
8.830458965E0,-4.711723328E-1,-2.023811340E0,6.835937500E-2
8.835463848E0,-4.818534851E-1,-2.244377136E0,1.492691040E-1
8.840499248E0,-4.797172546E-1,-2.413673401E0,2.292442322E-1
8.845504131E0,-4.668998718E-1,-2.553329468E0,3.122901917E-1
8.850509014E0,-4.401969910E-1,-2.678966522E0,4.060173035E-1
8.855513897E0,-3.879928589E-1,-2.799396515E0,5.189704895E-1
8.860518780E0,-2.878570557E-1,-2.937850952E0,6.766510010E-1
8.865523662E0,-1.260375977E-1,-3.130645752E0,8.917427063E-1
8.870559063E0,1.116180420E-1,-3.404350281E0,1.152763367E0
8.875563946E0,4.535484314E-1,-3.792209625E0,1.441421509E0
8.880568828E0,9.052276611E-1,-4.302368164E0,1.721668243E0
8.885573711E0,1.461181641E0,-4.920272827E0,1.948509216E0
8.890578594E0,2.087631226E0,-5.589313507E0,2.042236328E0
8.895613994E0,2.732105255E0,-6.189060211E0,1.892032623E0
8.900618877E0,3.321170807E0,-6.623649597E0,1.478805542E0
8.905623760E0,3.754825592E0,-6.818580627E0,9.056282043E-1
8.910628643E0,3.997688293E0,-6.761035919E0,2.857208252E-1
8.915633526E0,4.054164886E0,-6.472377777E0,-2.138900757E-1
8.920668926E0,3.911304474E0,-5.986652374E0,-4.973411560E-1
8.925673809E0,3.585395813E0,-5.261135101E0,-5.953407288E-1
8.930678692E0,3.119831085E0,-4.285411835E0,-5.643653870E-1
8.935683575E0,2.561607361E0,-3.041191101E0,-4.578208923E-1
8.940688457E0,2.014064789E0,-1.482677460E0,-3.343200684E-1
8.945693340E0,1.707382202E0,2.761077881E-1,-2.224349976E-1
8.950728741E0,1.659450531E0,1.896305084E0,-1.383209229E-1
8.955733623E0,1.716861725E0,3.174705505E0,-9.359359741E-2
8.960738506E0,1.855449677E0,4.188747406E0,-4.245758057E-2
8.965743389E0,1.994972229E0,5.058059692E0,3.952026367E-2
8.970748272E0,1.999244690E0,5.894260406E0,1.088142395E-1
8.975783672E0,1.863861084E0,6.598415375E0,1.610183716E-1
8.980788555E0,1.630611420E0,6.960639954E0,2.089500427E-1
8.985793438E0,1.316318512E0,6.871185303E0,2.324485779E-1
8.990798321E0,9.627723694E-1,6.397075653E0,2.632904053E-1
8.995803203E0,6.632995605E-1,5.828170776E0,3.240394592E-1
9.000838604E0,4.929351807E-1,5.339241028E0,3.612899780E-1
9.005812969E0,4.321861267E-1,4.853515625E0,3.741073608E-1
9.010848369E0,4.279136658E-1,4.352836609E0,3.474044800E-1
9.015853252E0,4.332542419E-1,3.916110992E0,2.814483643E-1
9.020858135E0,4.439353943E-1,3.577384949E0,1.855850220E-1
9.025863018E0,4.417991638E-1,3.309955597E0,7.049560547E-2
9.030898418E0,4.098892212E-1,3.086185455E0,-5.527496338E-2
9.035903301E0,3.448677063E-1,2.888050079E0,-1.873207092E-1
9.040908184E0,2.458000183E-1,2.693119049E0,-3.300476074E-1
9.045913067E0,1.084136963E-1,2.509937286E0,-4.909324646E-1
9.050917950E0,-6.635665894E-2,2.364006042E0,-6.602287292E-1
9.055953350E0,-2.687644958E-1,2.283096313E0,-8.221817017E-1
9.060958233E0,-4.966735840E-1,2.291507721E0,-9.543609619E-1
9.065963116E0,-7.279205322E-1,2.315006256E0,-1.041679382E0
9.070967998E0,-9.558296204E-1,2.317142487E0,-1.096019745E0
9.075972881E0,-1.175327301E0,2.280960083E0,-1.139678955E0
9.081008282E0,-1.380939484E0,2.203121185E0,-1.185474396E0
9.086013164E0,-1.563053131E0,2.052917480E0,-1.237678528E0
9.091018047E0,-1.705780029E0,1.805782318E0,-1.278133392E0
9.096022930E0,-1.811256409E0,1.435146332E0,-1.282405853E0
9.101027813E0,-1.947574615E0,9.099006653E-1,-1.252632141E0
9.106063213E0,-2.122344971E0,-9.893417358E-2,-1.117248535E0
9.111068096E0,-2.202186584E0,-1.850242615E0,-8.168411255E-1
9.116072979E0,-2.023277283E0,-3.952960968E0,-3.546142578E-1
9.121077862E0,-1.657848358E0,-5.525360107E0,9.599685669E-2
9.126082744E0,-1.369190216E0,-6.042060852E0,3.474044800E-1
9.131087627E0,-1.238079071E0,-5.761814117E0,4.156303406E-1
9.136123028E0,-1.156101227E0,-5.115203857E0,4.209709167E-1
9.141127910E0,-1.032466888E0,-4.328002930E0,4.411315918E-1
9.146132793E0,-8.386039734E-1,-3.515167236E0,4.742431641E-1
9.151137676E0,-5.819892883E-1,-2.729034424E0,4.933357239E-1
9.156142559E0,-2.899932861E-1,-1.996173859E0,4.901313782E-1
9.161177959E0,1.989364624E-2,-1.315383911E0,4.699707031E-1
9.166182842E0,3.140258789E-1,-7.070922852E-1,4.380607605E-1
9.171187725E0,5.622291565E-1,-2.384567261E-1,3.858566284E-1
9.176192608E0,7.464790344E-1,7.797241211E-2,3.090858459E-1
9.181197491E0,8.806610107E-1,2.984046936E-1,2.335166931E-1
9.186232891E0,9.765243530E-1,4.571533203E-1,1.727676392E-1
9.191237774E0,1.041545868E0,5.604934692E-1,1.205635071E-1
9.196242657E0,1.083068848E0,6.212425232E-1,7.690429688E-2
9.201247539E0,1.103363037E0,6.467437744E-1,4.486083984E-2
9.206252422E0,1.106567383E0,6.392669678E-1,2.576828003E-2
9.211257305E0,1.099090576E0,5.902671814E-1,1.295089722E-2
9.216292705E0,1.079864502E0,5.114936829E-1,9.746551514E-3
9.221297588E0,1.056499481E0,4.092216492E-1,7.610321045E-3
9.226302471E0,1.031932831E0,2.835845947E-1,9.746551514E-3
9.231307354E0,1.003227234E0,1.471328735E-1,1.295089722E-2
9.236312237E0,9.754562378E-1,-4.138946533E-3,1.508712769E-2
9.241347637E0,9.520912170E-1,-1.659584045E-1,1.722335815E-2
9.246352520E0,9.285926819E-1,-3.321838379E-1,2.470016479E-2
9.251357403E0,9.095001221E-1,-5.078887939E-1,3.644943237E-2
9.256362285E0,8.998870850E-1,-6.869316101E-1,5.554199219E-2
9.261367168E0,9.009552002E-1,-8.786582947E-1,8.438110352E-2
9.266402569E0,9.105682373E-1,-1.087474823E0,1.408576965E-1
9.271407451E0,9.296607971E-1,-1.305770874E0,2.292442322E-1
9.276412334E0,9.531593323E-1,-1.546630859E0,3.420639038E-1
9.281417217E0,9.786605835E-1,-1.807518005E0,4.710388184E-1
9.286422100E0,9.989547729E-1,-2.101650238E0,6.223106384E-1
9.291426983E0,1.005363464E0,-2.430763245E0,7.810592651E-1
9.296462383E0,9.957504272E-1,-2.789783478E0,9.376716614E-1
9.301467266E0,9.649085999E-1,-3.145599365E0,1.080398560E0
9.306472149E0,9.073638916E-1,-3.462963104E0,1.216716766E0
9.311477032E0,8.273887634E-1,-3.718643188E0,1.350898743E0
9.316481914E0,7.081604004E-1,-3.885936737E0,1.482009888E0
9.321517315E0,5.654335022E-1,-4.004096985E0,1.634349823E0
9.326522198E0,3.938674927E-1,-4.089412689E0,1.814327240E0
9.331527080E0,1.807785034E-1,-4.151096344E0,2.004985809E0
9.336531963E0,-8.024215698E-2,-4.191684723E0,2.165870667E0
9.341536846E0,-3.890609741E-1,-4.239616394E0,2.238235474E0
9.346572246E0,-7.438087463E-1,-4.273662567E0,2.159461975E0
9.351577129E0,-1.148624420E0,-4.250164032E0,1.908054352E0
9.356582012E0,-1.609916687E0,-4.163913727E0,1.525669098E0
9.361586895E0,-2.107391357E0,-4.014778137E0,1.104831696E0
9.366591778E0,-2.605934143E0,-3.792209625E0,7.447433472E-1
9.371596660E0,-3.077774048E0,-3.523712158E0,5.061531067E-1
9.376632061E0,-3.479385376E0,-3.254146576E0,3.867912292E-1
9.381636944E0,-3.774585724E0,-3.032646179E0,3.304481506E-1
9.386641826E0,-3.959903717E0,-2.877101898E0,2.696990967E-1
9.391646709E0,-4.072856903E0,-2.818489075E0,1.684951782E-1
9.396651592E0,-4.127063751E0,-2.812080383E0,1.081466675E-2
9.401686992E0,-4.101562500E0,-2.762012482E0,-2.022743225E-1
9.406691875E0,-3.999290466E0,-2.619285583E0,-4.355239868E-1
9.411696758E0,-3.834133148E0,-2.440376282E0,-6.411361694E-1
9.416701641E0,-3.639202118E0,-2.365741730E0,-8.157730103E-1
9.421706524E0,-3.438930511E0,-2.354125977E0,-9.394073486E-1
9.426741924E0,-3.264293671E0,-2.355060577E0,-1.094951630E0
9.431746807E0,-3.125839233E0,-2.350921631E0,-1.295223236E0
9.436751690E0,-3.050136566E0,-2.296581268E0,-1.451835632E0
9.441756573E0,-3.039455414E0,-2.192173004E0,-1.533813477E0
9.446761455E0,-3.076839447E0,-1.986560822E0,-1.545562744E0
9.451766338E0,-3.162021637E0,-1.565723419E0,-1.514587402E0
9.456801739E0,-3.272838593E0,-9.084320068E-1,-1.468791962E0
9.461806621E0,-3.355884552E0,-3.284454346E-2,-1.431541443E0
9.466811504E0,-3.383522034E0,9.823989868E-1,-1.401767731E0
9.471816387E0,-3.336658478E0,2.066802979E0,-1.384677887E0
9.476821270E0,-3.151340485E0,3.246002197E0,-1.363315582E0
9.481856670E0,-2.820091248E0,4.492359161E0,-1.349563599E0
9.486861553E0,-2.381229401E0,5.673828125E0,-1.357975006E0
9.491866436E0,-1.850643158E0,6.551551819E0,-1.390018463E0
9.496871319E0,-1.085739136E0,6.816844940E0,-1.415519714E0
9.501876201E0,1.700973511E-1,5.829238892E0,-1.371860504E0
9.506911602E0,1.467590332E0,3.737068176E0,-1.222724915E0
9.511916485E0,2.233562469E0,1.745033264E0,-1.020317078E0
9.516921367E0,2.477493286E0,3.251075745E-1,-8.371353149E-1
9.521926250E0,2.419948578E0,-6.890678406E-1,-6.901359558E-1
9.526931133E0,2.243175507E0,-1.466655731E0,-5.718421936E-1
9.531936016E0,2.047176361E0,-2.077083588E0,-4.834556580E-1
9.536971416E0,1.863861084E0,-2.540512085E0,-4.195022583E-1
9.541976299E0,1.693496704E0,-2.878170013E0,-3.779792786E-1
9.546981182E0,1.530475616E0,-3.112487793E0,-3.535461426E-1
9.551986065E0,1.373863220E0,-3.275508881E0,-3.407287598E-1
9.556990948E0,1.225795746E0,-3.398075104E0,-3.439331055E-1
9.562026348E0,1.086273193E0,-3.500347137E0,-3.546142578E-1
9.567031231E0,9.510231018E-1,-3.557758331E0,-3.662300110E-1
9.572036114E0,8.220481873E-1,-3.544006348E0,-3.779792786E-1
9.577040996E0,7.017517090E-1,-3.519439697E0,-3.886604309E-1
9.582045879E0,5.952072144E-1,-3.496074677E0,-4.046821594E-1
9.587081280E0,5.046844482E-1,-3.464031219E0,-4.333877563E-1
9.592086162E0,4.332542419E-1,-3.398075104E0,-4.652976990E-1
9.597091045E0,3.927993774E-1,-3.259487152E0,-4.898643494E-1
9.602095928E0,3.714370728E-1,-3.092327118E0,-5.069541931E-1
9.607100811E0,3.544807434E-1,-2.928237915E0,-5.207061768E-1
9.612105694E0,3.693008423E-1,-2.759876251E0,-5.281829834E-1
9.617141094E0,4.364585876E-1,-2.519149780E0,-5.377960205E-1
9.622145977E0,7.017517090E-1,-1.970539093E0,-5.622291565E-1
9.627150860E0,1.192817688E0,-1.086406708E0,-6.006813049E-1
9.632155742E0,1.785087585E0,-7.329940796E-2,-6.411361694E-1
9.637160625E0,2.323017120E0,8.311271667E-1,-6.698417664E-1
9.642196026E0,2.694854736E0,1.494693756E0,-6.655693054E-1
9.647200908E0,2.909011841E0,1.917667389E0,-6.623649597E-1
9.652205791E0,3.012218475E0,2.240371704E0,-6.496810913E-1
9.657210674E0,3.031444550E0,2.573890686E0,-6.187057495E-1
9.662246075E0,3.006877899E0,2.937049866E0,-5.750465393E-1
9.667250957E0,2.919559479E0,3.360023499E0,-5.164337158E-1
9.672255840E0,2.760944366E0,3.844680786E0,-4.440689087E-1
9.677260723E0,2.543582916E0,4.327335358E0,-3.747749329E-1
9.682265606E0,2.260131836E0,4.748039246E0,-3.204345703E-1
9.687270489E0,1.928882599E0,5.076217651E0,-2.692985535E-1
9.692305889E0,1.592292786E0,5.252990723E0,-2.033424377E-1
9.697310772E0,1.246089935E0,5.341377258E0,-1.222991943E-1
9.702315655E0,9.137725830E-1,5.374488831E0,-9.346008301E-4
9.707320537E0,6.080245972E-1,5.318012238E0,2.622222900E-1
9.712325420E0,3.203010559E-1,5.111331940E0,7.064247131E-1
9.717360821E0,4.232406616E-2,4.756584167E0,1.305103302E0
9.722365703E0,-1.857185364E-1,4.279403687E0,2.006053925E0
9.727370586E0,-3.102874756E-1,3.643341064E0,2.768821716E0
9.732375469E0,-3.241729736E-1,2.780570984E0,3.538932800E0
9.737380352E0,-2.409934998E-1,1.779212952E0,4.237747192E0
9.742385235E0,-4.285812378E-2,7.767868042E-1,4.785289764E0
9.747420635E0,2.319145203E-1,-1.116180420E-1,5.085697174E0
9.752425518E0,5.036163330E-1,-8.009529114E-1,5.112400055E0
9.757430401E0,6.985473633E-1,-1.203632355E0,4.825878143E0
9.762435283E0,7.794570923E-1,-1.362247467E0,3.956565857E0
9.767440166E0,7.454109192E-1,-1.344223022E0,2.423686981E0
9.772445049E0,5.802536011E-1,-1.104564667E0,7.374000549E-1
9.777480450E0,2.915954590E-1,-6.176376343E-1,-3.737068176E-1
9.782485332E0,-7.062911987E-2,1.024055481E-1,-7.145690918E-1
9.787490215E0,-4.530143738E-1,9.918785095E-1,-6.400680542E-1
9.792495098E0,-8.077621460E-1,1.937961578E0,-4.152297974E-1
9.797499981E0,-1.106033325E0,2.817821503E0,-2.213668823E-1
9.802535381E0,-1.382007599E0,3.524112701E0,-2.108192444E-1
9.807540264E0,-1.557712555E0,4.067382812E0,-3.546142578E-1
9.812545147E0,-1.621665955E0,4.380474091E0,-5.932044983E-1
9.817550030E0,-1.585350037E0,4.413585663E0,-8.435440063E-1
9.822554912E0,-1.456508636E0,4.216518402E0,-1.050224304E0
9.827590313E0,-1.269054413E0,3.854293823E0,-1.198291779E0
9.832595196E0,-1.061306000E0,3.370704651E0,-1.296291351E0
9.837600078E0,-8.876037598E-1,2.850799561E0,-1.357975006E0
9.842604961E0,-7.587623596E-1,2.308597565E0,-1.392154694E0
9.847609844E0,-6.894683838E-1,1.790828705E0,-1.406040192E0
9.852645244E0,-7.001495361E-1,1.335010529E0,-1.404972076E0
9.857650127E0,-7.779884338E-1,8.395385742E-1,-1.388950348E0
9.862655010E0,-8.781242371E-1,1.524734497E-1,-1.297359467E0
9.867659893E0,-9.376716614E-1,-7.806587219E-1,-1.077861786E0
9.872664776E0,-8.301925659E-1,-1.952514648E0,-6.997489929E-1
9.877669658E0,-5.265808105E-1,-3.164691925E0,-2.331161499E-1
9.882705059E0,-2.101516724E-1,-3.964710236E0,1.301765442E-1
9.887709942E0,8.010864258E-4,-4.120254517E0,2.941322327E-1
9.892714825E0,1.157569885E-1,-3.683528900E0,3.048133850E-1
9.897719707E0,1.989364624E-1,-2.798328400E0,2.281761169E-1
9.902724590E0,3.320503235E-1,-1.686153412E0,1.194953918E-1
9.907759991E0,5.494117737E-1,-5.239105225E-1,5.126953125E-2
9.912764873E0,8.434104919E-1,6.009483337E-1,5.661010742E-2
9.917769756E0,1.176795959E0,1.605510712E0,1.205635071E-1
9.922774639E0,1.482543945E0,2.448120117E0,2.174949646E-1
9.927779522E0,1.700973511E0,3.079910278E0,3.069496155E-1
9.932814922E0,1.816997528E0,3.509159088E0,3.709030151E-1
9.937819805E0,1.841564178E0,3.791408539E0,4.263114929E-1
9.942824688E0,1.801109314E0,3.956565857E0,4.667663574E-1
9.947829571E0,1.722202301E0,4.026927948E0,4.965400696E-1
9.952834453E0,1.624202728E0,4.011974335E0,5.168342590E-1
9.957839336E0,1.517658234E0,3.929996490E0,5.349922180E-1
9.962874737E0,1.410045624E0,3.776588440E0,5.594253540E-1
9.967879619E0,1.321659088E0,3.570976257E0,5.701065063E-1
9.972884502E0,1.246089935E0,3.319568634E0,5.754470825E-1
9.977889385E0,1.190681458E0,3.056411743E0,5.679702759E-1
9.982894268E0,1.148090363E0,2.793254852E0,5.540847778E-1
9.987929668E0,1.112976074E0,2.522754669E0,5.307197571E-1
9.992934551E0,1.084136963E0,2.240371704E0,4.986763000E-1
9.997939434E0,1.058635712E0,1.966667175E0,4.646301270E-1
1.000294432E1,1.034069061E0,1.687622070E0,4.241752625E-1
1.000794920E1,1.012706757E0,1.406307220E0,3.826522827E-1
1.001298460E1,9.904098511E-1,1.128330231E0,3.420639038E-1
1.001798948E1,9.722518921E-1,8.555603027E-1,2.984046936E-1
1.002299437E1,9.510231018E-1,5.934715271E-1,2.536773682E-1
1.002799925E1,9.253883362E-1,3.431320190E-1,2.153587341E-1
1.003300413E1,8.988189697E-1,1.002693176E-1,1.866531372E-1
1.003800901E1,8.710479736E-1,-1.319122314E-1,1.706314087E-1
1.004304441E1,8.434104919E-1,-3.450012207E-1,1.674270630E-1
1.004804930E1,8.135032654E-1,-5.388641357E-1,1.781082153E-1
1.005305418E1,7.815933228E-1,-7.113647461E-1,1.918601990E-1
1.005805906E1,7.475471497E-1,-8.605003357E-1,2.057456970E-1
1.006306395E1,7.144355774E-1,-9.862709045E-1,2.174949646E-1
1.006809935E1,6.793212891E-1,-1.069316864E0,2.335166931E-1
1.007310423E1,6.367301941E-1,-1.119384766E0,2.526092529E-1
1.007810911E1,5.973434448E-1,-1.154632568E0,2.761077881E-1
1.008311399E1,5.622291565E-1,-1.179065704E0,3.058815002E-1
1.008811888E1,5.280494690E-1,-1.191883087E0,3.452682495E-1
1.009315428E1,4.940032959E-1,-1.185474396E0,3.910636902E-1
1.009815916E1,4.556846619E-1,-1.177997589E0,4.582214355E-1
1.010316404E1,4.150962830E-1,-1.167316437E0,5.594253540E-1
1.010816893E1,3.671646118E-1,-1.160907745E0,7.053565979E-1
1.011317381E1,3.140258789E-1,-1.152496338E0,9.237861633E-1
1.011817869E1,2.554130554E-1,-1.142883301E0,1.262512207E0
