"Time (s)","Linear Acceleration x (m/s^2)","Linear Acceleration y (m/s^2)","Linear Acceleration z (m/s^2)"
6.187058700E-2,0.000000000E0,0.000000000E0,-0.000000000E0
6.687547000E-2,-1.763331890E-1,5.517101288E-1,2.673416138E-1
7.188035300E-2,-1.988044977E-1,7.680935860E-1,4.263677597E-1
7.688523500E-2,-3.954372406E-1,4.803223610E-1,1.805839539E-1
8.189011800E-2,-1.577723026E-1,9.683084488E-2,-1.723136902E-1
8.689500100E-2,4.226156473E-1,-1.331849098E-1,-4.305868149E-1
9.189988400E-2,7.015547752E-1,-4.055385590E-1,-4.606704712E-1
9.693528400E-2,6.552932262E-1,-7.041931152E-1,-5.446033478E-1
1.019401670E-1,5.392396450E-1,-8.920230865E-1,-8.225746155E-1
1.069450500E-1,3.275268078E-1,-9.991703033E-1,-1.118923187E0
1.119499330E-1,1.739567518E-1,-1.114762783E0,-1.286330223E0
1.169548160E-1,1.831641197E-1,-1.145501137E0,-1.322267532E0
1.219596980E-1,2.426379919E-1,-1.062520981E0,-1.255241394E0
1.269950990E-1,2.464346886E-1,-9.542059898E-1,-1.005592346E0
1.319999820E-1,3.569008112E-1,-7.559480667E-1,-7.633743286E-1
1.370048640E-1,2.424839735E-1,-6.417598724E-1,-5.451078415E-1
1.420402650E-1,-1.712327600E-1,-6.078581810E-1,-3.592853546E-1
1.470451480E-1,-6.157068610E-1,-7.915902138E-1,-1.882953644E-1
1.520500300E-1,-8.904315233E-1,-1.114532948E0,-1.185989380E-1
1.570549130E-1,-1.071022987E0,-1.381758213E0,3.978729248E-2
1.620597960E-1,-1.210484385E0,-1.591762066E0,2.178106308E-1
1.670646790E-1,-1.253761649E0,-1.682936192E0,3.962049484E-1
1.721000790E-1,-1.211645842E0,-1.682344437E0,5.792713165E-1
1.771049620E-1,-1.122341871E0,-1.583210945E0,7.120866776E-1
1.821098450E-1,-1.019364595E0,-1.491853237E0,7.641267776E-1
1.871147280E-1,-9.645301104E-1,-1.344116688E0,6.758537292E-1
1.921196100E-1,-8.589664698E-1,-1.196680069E0,4.905786514E-1
1.971244930E-1,-7.562242746E-1,-1.050792217E0,1.732835770E-1
2.021598940E-1,-6.486085653E-1,-8.992290497E-1,-1.752023697E-1
2.071647770E-1,-8.214083910E-1,-7.511720657E-1,-4.897127151E-1
2.121696590E-1,-5.989879370E-1,-5.178346634E-1,-6.780099869E-1
2.171745420E-1,-1.430916786E-1,-7.141938210E-1,-1.063363075E0
2.221794250E-1,-3.483159542E-1,-1.336330414E0,-1.898196220E0
2.271843080E-1,8.370864391E-2,-7.560801506E-1,-1.645195961E0
2.322197080E-1,3.586823940E-1,1.014032364E-1,-1.077877045E0
2.372551090E-1,3.903108835E-1,4.253439903E-1,-8.293905258E-1
2.422599910E-1,3.172374964E-1,1.571907997E-1,-1.063090324E0
2.472648740E-1,3.259813786E-1,-3.300981522E-1,-1.505243301E0
2.522697570E-1,3.473919630E-1,-7.784442902E-1,-1.744996071E0
2.572746400E-1,3.605282307E-1,-1.013211250E0,-1.615558624E0
2.623100400E-1,2.903838158E-1,-1.089435577E0,-1.417947769E0
2.673149230E-1,1.349617243E-1,-9.884939194E-1,-1.135950089E0
2.723198060E-1,3.523576260E-2,-9.999861717E-1,-9.204273224E-1
2.773246890E-1,2.018177509E-2,-9.848732948E-1,-7.972612381E-1
2.823295710E-1,1.362444162E-1,-1.083739758E0,-6.677618027E-1
2.873344540E-1,3.366748095E-1,-1.157008648E0,-4.399452209E-1
2.923698550E-1,5.124719143E-1,-1.193512917E0,-2.378425598E-1
2.973747370E-1,5.400234461E-1,-1.218319893E0,-1.315288544E-1
3.023796200E-1,6.712868214E-1,-1.212327957E0,-6.064224243E-2
3.073845030E-1,1.002610207E0,-1.193045139E0,-8.354187012E-3
3.123893860E-1,1.404393673E0,-1.208279610E0,6.394958496E-2
3.174247860E-1,1.750574470E0,-1.288229942E0,-5.859375000E-2
3.224296690E-1,1.916113138E0,-1.262845516E0,-3.858413696E-1
3.274345520E-1,1.925416589E0,-1.211382866E0,-5.747623444E-1
3.324394350E-1,2.051198244E0,-1.089404821E0,-4.845657349E-1
3.374443180E-1,2.231805563E0,-9.429457188E-1,-1.076602936E-1
3.424797180E-1,2.225077629E0,-9.613509178E-1,3.760261536E-1
3.474846010E-1,2.062557936E0,-1.032708883E0,9.535284042E-1
3.524894840E-1,2.060873032E0,-1.078191280E0,1.837062836E0
3.574943660E-1,2.214385033E0,-1.131023884E0,2.717993736E0
3.624992490E-1,2.389200449E0,-1.296623945E0,3.295216560E0
3.675041320E-1,2.557287216E0,-1.524174690E0,3.554683685E0
3.725395320E-1,2.720747471E0,-1.760063648E0,3.603430748E0
3.775444150E-1,3.089125395E0,-1.868371964E0,3.515676498E0
3.825492980E-1,3.545894623E0,-1.932804108E0,3.559793472E0
3.875541810E-1,3.504244328E0,-2.267815113E0,3.381002426E0
3.925590640E-1,3.610315800E0,-2.382723808E0,3.020287991E0
3.975944640E-1,3.803739071E0,-2.273862362E0,2.762554169E0
4.025993470E-1,3.528947353E0,-2.358180046E0,2.350631714E0
4.076042300E-1,3.261798382E0,-2.704926014E0,2.085130215E0
4.126091120E-1,2.739408970E0,-3.157099724E0,1.999477863E0
4.176139950E-1,1.839677334E0,-3.272308826E0,1.258101940E0
4.226188780E-1,2.305677891E0,-2.315415859E0,-7.014322281E-1
4.276542780E-1,3.032392979E0,-1.530769825E0,-2.359060287E0
4.326591610E-1,2.383462906E0,-4.850893021E-1,-3.603326797E0
4.376945620E-1,1.015845776E0,4.033303261E-1,-5.069094658E0
4.426994440E-1,2.635211945E-1,1.040357113E0,-6.014556885E0
4.477043270E-1,2.621412277E-2,1.249876976E0,-6.784012794E0
4.527092100E-1,-5.748114586E-1,8.810033798E-1,-7.279184341E0
4.577140930E-1,-1.271362782E0,4.840426445E-1,-6.690182686E0
4.627189760E-1,-2.018725872E0,3.227939606E-1,-4.851624489E0
4.677238590E-1,-2.443786621E0,3.788566589E-1,-2.716197729E0
4.727287410E-1,-2.115577698E0,5.842542648E-1,-1.115350485E0
4.777641420E-1,-1.555553436E0,6.246175766E-1,2.237696648E-1
4.827690250E-1,-1.470792770E0,3.026828766E-1,1.332842827E0
4.877739070E-1,-2.064772129E0,-1.209669113E-1,2.204867840E0
4.927787900E-1,-3.005113602E0,-7.885532379E-1,-2.468955517E-1
4.977836730E-1,-4.189858913E0,-8.762893677E-1,-1.375892448E1
5.028190730E-1,-5.060196877E0,8.202762604E-1,-1.410446072E1
5.078239560E-1,-4.486252785E0,1.746711254E0,3.547418833E0
5.128288390E-1,-2.878263474E0,1.940485477E0,1.054954147E1
5.178337220E-1,-1.480731010E0,1.122065067E0,7.310562611E0
5.228386050E-1,-9.504365921E-1,-2.321643829E-1,2.997007370E0
5.278740050E-1,-9.409427643E-1,-7.150921822E-1,1.896387577E0
5.328788880E-1,-3.373804092E-1,-2.980060577E-1,2.609426975E0
5.378837710E-1,5.041980743E-1,8.978509903E-2,3.257610083E0
5.428886530E-1,4.092521667E-1,5.250930786E-3,3.588242531E0
5.478935360E-1,-2.732152939E-1,-3.680434227E-1,3.683125496E0
5.528984190E-1,-7.776546478E-1,-4.418010712E-1,3.283717394E0
5.579338190E-1,-6.480798721E-1,-2.895689011E-1,2.453949213E0
5.629387020E-1,-5.335407257E-1,-2.558355331E-1,1.828433275E0
5.679435850E-1,-1.206516266E0,-3.488764763E-1,1.915145636E0
5.729789850E-1,-2.546807289E0,-2.919621468E-1,2.201306581E0
5.779838680E-1,-3.986756325E0,3.768253326E-2,2.376086235E0
5.829887510E-1,-5.057830811E0,6.161508560E-1,1.754981279E0
5.879936340E-1,-5.443173409E0,1.430758953E0,3.539173603E-1
5.929985170E-1,-4.825318336E0,1.995037556E0,-2.751159668E-2
5.980034000E-1,-3.697524071E0,2.310817242E0,2.371318340E-1
6.030082820E-1,-2.874024391E0,2.461197376E0,1.494739056E-1
6.080131650E-1,-2.052873611E0,2.063059807E0,-1.902205944E-1
6.130485660E-1,-1.249927521E0,1.564413071E0,-2.746449709E-1
6.180534480E-1,-7.209215164E-1,1.293942451E0,7.355976105E-2
6.230583310E-1,-5.285739899E-1,1.162736416E0,7.097661495E-1
6.280632140E-1,-6.211166382E-1,1.281116486E0,1.120750308E0
6.330680970E-1,-6.436986923E-1,1.624735355E0,1.045556188E0
6.381034970E-1,-4.505310059E-1,2.054401875E0,9.261089563E-1
6.431083800E-1,-2.019529343E-1,2.218026161E0,8.535422087E-1
6.481132630E-1,2.779836655E-1,1.881528378E0,7.269759178E-1
6.531181460E-1,7.818803787E-1,1.225982189E0,3.966195583E-1
6.581230280E-1,8.738222122E-1,6.885094643E-1,-9.901785851E-2
6.631584290E-1,5.217943192E-1,4.201278687E-1,-7.419993877E-1
6.681633120E-1,4.609394073E-2,4.009146690E-1,-1.425959706E0
6.731681940E-1,-3.734340668E-1,5.051369667E-1,-2.315762043E0
6.781730770E-1,-5.056829453E-1,5.613985062E-1,-3.379949570E0
6.831779600E-1,8.943462372E-2,1.823048592E-1,-2.032894373E0
6.882133600E-1,-1.962366104E-1,-4.698948860E-1,-7.704923749E-1
6.932182430E-1,-1.185061455E0,-9.150352478E-1,-1.441193819E0
6.982231260E-1,-1.329162598E0,-8.816809654E-1,-2.259489536E0
7.032280090E-1,-1.144972801E0,-4.530158043E-1,-1.611273527E0
7.082328920E-1,-1.052531242E0,1.080746651E-1,-1.344177127E0
7.132377750E-1,-2.409057617E-1,6.581144333E-1,-1.371188879E0
7.182731750E-1,1.174198151E0,9.959187508E-1,-9.812445641E-1
7.232780580E-1,2.235698700E0,1.167684078E0,-5.963664651E-1
7.282829410E-1,3.790229797E0,3.486500263E0,-9.356651306E-1
7.332878230E-1,4.229556084E0,4.930513382E0,1.188691705E-1
7.383232240E-1,2.476469040E0,3.771280289E0,7.791347504E-1
7.433281070E-1,2.103642464E0,3.346559525E0,4.239184558E-1
7.483329890E-1,2.616803169E0,2.789954185E0,5.650052428E-1
7.533378720E-1,3.214678764E0,2.246696949E0,5.173076987E-1
7.583427550E-1,3.866626740E0,2.011947632E0,3.688483834E-1
7.633476380E-1,4.651986122E0,2.016745090E0,4.435206056E-1
7.683830380E-1,5.259080887E0,2.129196167E0,7.330015898E-1
7.733879210E-1,5.131443024E0,2.289506912E0,7.033001184E-1
7.783928040E-1,4.767600060E0,2.529855728E0,3.740100563E-1
7.833976870E-1,4.707215309E0,2.648280621E0,4.645631313E-1
7.884025690E-1,4.740997314E0,2.450649738E0,7.925184965E-1
7.934074520E-1,4.720414162E0,2.006757259E0,8.925529122E-1
7.984428530E-1,4.821660042E0,1.366474628E0,8.076560497E-1
8.034477350E-1,4.691811562E0,5.509495735E-1,1.491260529E-1
8.084526180E-1,4.202236176E0,-4.153709412E-1,-4.920107126E-1
8.134575010E-1,3.752460480E0,-1.348976612E0,-5.642871857E-1
8.184929020E-1,3.561173439E0,-2.328291893E0,-5.152604580E-1
8.234977840E-1,3.394309044E0,-3.252532959E0,-1.019998312E0
8.285026670E-1,3.084764481E0,-3.965524197E0,-1.596855044E0
8.335075500E-1,2.744270325E0,-4.447608948E0,-1.953621149E0
8.385124330E-1,2.449719429E0,-5.539945602E0,-2.311515808E0
8.435173160E-1,1.397809982E0,-6.282893181E0,-1.611967087E0
8.485527160E-1,1.541263580E0,-6.704582214E0,-4.154458523E0
8.535575990E-1,1.961923599E0,-9.839806557E0,-6.847957373E-1
8.585624820E-1,9.102602005E-1,-7.479084969E0,-4.778856277E0
8.635673640E-1,3.827659607E0,-7.605180740E0,-5.801217079E0
8.685722470E-1,3.044735909E0,-7.324660301E0,-9.094403982E-1
8.735771300E-1,1.865634918E-1,-6.369812965E0,-2.696155548E0
8.785820130E-1,1.673460007E-1,-4.118977070E0,-5.497145653E0
8.836174130E-1,-1.649723053E-1,-6.991798878E0,-6.301548958E0
8.886222960E-1,-3.727645874E-1,-6.677636147E0,-1.983434439E0
8.936271790E-1,2.375436783E0,-3.614153624E0,-1.763648152E0
8.986320620E-1,1.940034866E0,-4.165966034E0,-5.812600136E0
9.036674620E-1,8.375701904E-1,-4.022687435E0,-4.018085957E0
9.086723450E-1,7.393388748E-1,-4.309888363E0,-3.490452766E0
9.136772280E-1,1.591377258E-1,-4.620906830E0,-3.866667032E0
9.186821100E-1,1.434211731E-1,-4.215632915E0,-3.010931492E0
9.237175110E-1,3.645181656E-1,-3.154656172E0,-2.226112127E0
9.287223940E-1,2.216911316E-2,-1.646471739E0,-1.745191097E0
9.337272770E-1,-1.796245575E-1,-7.937508821E-2,-1.520361662E0
9.387321590E-1,1.927661896E-1,1.732877016E0,-1.386128664E0
9.437370420E-1,7.282075882E-1,3.437093496E0,-9.804353714E-1
9.487724430E-1,1.096409798E0,4.891992092E0,-5.254616737E-1
9.537773250E-1,7.285289764E-1,4.811473370E0,-4.075574875E-2
9.587822080E-1,6.538524628E-1,3.657122374E0,-3.960576057E-1
9.637870910E-1,1.713622093E0,4.346127510E0,-1.042404890E0
9.687919740E-1,1.846879005E0,5.230170250E0,-9.497270584E-1
9.738273740E-1,2.066008568E0,5.469822407E0,-1.307348490E0
9.788322570E-1,2.590152740E0,5.563811302E0,-1.454364777E0
9.838371400E-1,2.853907585E0,5.539795876E0,-1.704952955E0
9.888420230E-1,2.814997673E0,5.136587620E0,-2.157615423E0
9.938469050E-1,2.314055443E0,4.074768066E0,-2.009229183E0
9.988823060E-1,1.501517296E0,2.308431387E0,-1.725780964E0
1.003887189E0,1.079402924E0,1.034459949E0,-2.101134539E0
1.008892071E0,6.495695114E-1,-5.243200064E-2,-2.380139828E0
1.013896954E0,6.593332291E-1,-9.903603792E-1,-2.311872482E0
1.018901837E0,5.171003342E-1,-1.476151943E0,-1.970979214E0
1.023906720E0,2.271366119E-1,-9.294088483E-1,-1.904004574E0
1.028942120E0,-8.288707733E-1,-1.514533401E0,-1.824158430E0
1.033947003E0,-1.390666962E0,-2.346071243E0,-1.500053883E0
1.038951886E0,-1.791719437E0,-2.428999424E0,-1.527431250E0
1.043956769E0,-2.236416817E0,-2.593956470E0,-1.918836594E0
1.048961652E0,-2.491948128E0,-2.586026669E0,-1.623070717E0
1.053997052E0,-2.829751968E0,-2.162114143E0,-1.274110556E0
1.059001935E0,-3.181148529E0,-1.552245855E0,-1.384359598E0
1.064006818E0,-3.486636162E0,-8.921388388E-1,-1.572080851E0
1.069011700E0,-4.026355743E0,-5.866476297E-1,-1.710495472E0
1.074016583E0,-4.544002533E0,-6.363569498E-1,-1.563113451E0
1.079021466E0,-4.489863396E0,-6.601217985E-1,-1.220091343E0
1.084056866E0,-4.273326874E0,-8.628871441E-1,-7.858226299E-1
1.089061749E0,-4.318979263E0,-1.049902439E0,-1.019014359E0
1.094066632E0,-3.392348289E0,-1.234884024E0,-1.932303905E-1
1.099071515E0,-1.814403534E0,-1.158978462E0,2.502974510E0
1.104076398E0,-1.397135735E0,-1.465352774E0,2.975514412E0
1.109111798E0,-1.019002914E0,-1.334820271E0,2.763392925E0
1.114116681E0,-3.963022232E-1,-1.107192278E0,3.556641102E0
1.119121564E0,-8.296957016E-1,-2.483121395E0,4.801200390E0
1.124126446E0,-2.641935349E-1,-1.732632399E0,4.721636295E0
1.129131329E0,7.633533478E-1,-9.236104488E-1,4.477279186E0
1.134166730E0,1.685156822E0,-8.710882664E-1,4.789844513E0
1.139171612E0,2.858731270E0,-7.396838665E-1,5.096026421E0
1.144176495E0,3.709621429E0,-7.335302830E-1,4.829665184E0
1.149181378E0,4.278288841E0,-3.227353096E-1,4.978064060E0
1.154186261E0,4.648270607E0,6.961975098E-1,4.777765751E0
1.159191144E0,5.456973076E0,2.770440578E0,4.320007324E0
1.164226544E0,6.295337677E0,5.723565102E0,4.498282433E0
1.169231427E0,5.536105156E0,8.143741608E0,6.540012360E0
1.174236310E0,3.064805031E0,6.279798508E0,4.123712540E0
1.179241193E0,1.345252991E0,4.128339291E0,2.372701168E0
1.184246075E0,-5.937519073E-1,3.044867516E0,2.307417631E0
1.189281476E0,-2.694637299E0,1.594946861E0,-1.863033056E0
1.194286359E0,-3.335450172E0,-5.743346214E-1,-3.912676334E0
1.199291241E0,-5.687269211E0,-2.485564709E0,-6.295002460E0
1.204296124E0,-1.210069180E1,-4.945718765E0,-9.665282249E0
1.209301007E0,-2.293666840E1,-9.353374481E0,-3.859364510E0
1.214336407E0,-2.219098473E1,-1.027748299E1,6.088537693E0
1.219341290E0,-9.514705658E0,-5.508928776E0,8.285579681E0
1.224346173E0,6.958904743E0,4.604387283E-1,1.206429386E1
1.229351056E0,2.602331734E1,5.510354519E0,1.617654800E1
1.234355939E0,3.590478134E1,8.936489105E0,1.339850712E1
1.239360821E0,2.996692276E1,1.006339931E1,5.788507462E0
1.244396222E0,2.088722420E1,9.960995674E0,3.042437434E-1
1.249401105E0,1.269159889E1,8.683732986E0,-1.336415529E0
1.254405987E0,5.147625923E0,7.058343887E0,-1.875078440E0
1.259410870E0,-2.952423096E-1,5.867315769E0,-2.097933531E0
1.264415753E0,-4.825769901E0,3.431855202E0,-3.579571962E0
1.269451153E0,-5.357210159E0,1.666541576E0,-3.298684835E0
1.274456036E0,-4.513471127E0,8.002438545E-1,-2.344755411E0
1.279460919E0,-4.171185493E0,-3.000626564E-1,-1.022152305E0
1.284465802E0,-4.082634926E0,-9.992012978E-1,1.204172611E0
1.289470685E0,-5.098228455E0,-1.063015938E0,1.617970228E0
1.294506085E0,-5.134258747E0,3.559565544E-1,2.445253372E0
1.299510968E0,-9.889337540E0,-9.098296165E-1,-9.156295061E-1
1.304515851E0,-6.919041157E0,1.066846848E-1,7.077028155E-1
1.309520734E0,-2.717375755E0,1.639103889E0,1.807771683E0
1.314525616E0,-2.423673153E0,2.001975536E0,6.343554854E-1
1.319530499E0,-3.096472740E0,2.076583862E0,-8.182891011E-1
1.324565900E0,-4.437595844E0,1.512228489E0,-2.183248520E0
1.329570782E0,-5.000871658E0,1.285154343E0,-3.146394730E0
1.334575665E0,-4.152659893E0,1.120401382E0,-4.351313591E0
1.339580548E0,-3.808979511E0,1.611909866E-1,-4.348635674E0
1.344585431E0,-3.588154793E0,-8.208036423E-1,-4.109695911E0
1.349590314E0,-3.134732723E0,-1.640892029E0,-4.303040981E0
1.354595196E0,-3.294523716E0,-2.880723000E0,-4.248557568E0
1.359630597E0,-2.898760319E0,-4.166362762E0,-2.871664524E0
1.364635480E0,-4.387645721E0,-6.237940788E0,-8.490553498E-1
1.369640362E0,-4.530516624E0,-8.415939331E0,-2.960736752E-1
1.374645245E0,-2.391152620E0,-9.361328125E0,5.860445499E-1
1.379650128E0,3.981809616E-1,-9.956956863E0,1.990006447E0
1.384685528E0,4.517025471E0,-1.020157051E1,2.063879013E0
1.389690411E0,8.335475922E0,-9.678715706E0,2.253554821E0
1.394695294E0,1.001726437E1,-8.949867249E0,2.055678368E0
1.399700177E0,1.019607925E1,-7.982259750E0,1.406890631E0
1.404705060E0,7.206321239E0,-7.437625885E0,1.028743744E0
1.409740460E0,5.606626511E0,-6.877452850E0,-1.526461124E0
1.414745343E0,5.656525612E0,-5.627588272E0,-4.396902561E0
1.419750226E0,5.604737282E0,-3.956686020E0,-5.540266514E0
1.424755109E0,5.576155186E0,-1.591465950E0,-6.400841236E0
1.429759991E0,5.165956497E0,1.497263908E0,-7.434582710E0
1.434795392E0,4.325426579E0,3.631686211E0,-7.151754379E0
1.439800275E0,4.071667671E0,4.496546745E0,-6.990905762E0
1.444805157E0,4.865813255E0,5.011601448E0,-6.259506702E0
1.449810040E0,6.228738785E0,5.522673607E0,-5.642839432E0
1.454814923E0,8.478268623E0,7.390535355E0,-5.000099659E0
1.459819806E0,1.080668640E1,9.526559830E0,-3.354075432E0
1.464855206E0,1.196508598E1,1.159746838E1,7.190811634E-2
1.469860089E0,1.029562759E1,1.312649536E1,2.888991356E0
1.474864972E0,7.803487778E0,1.386788464E1,4.560742855E0
1.479869855E0,6.505166054E0,1.519902325E1,6.513520718E0
1.484874737E0,3.999888897E0,1.509688282E1,7.212181568E0
1.489910138E0,5.428392887E-1,1.305379772E1,6.326683521E0
1.494915021E0,-1.872101784E0,9.459626198E0,5.338353634E0
1.499919903E0,-3.290474415E0,5.595028877E0,2.242220879E0
1.504924786E0,-6.393604279E0,1.608625412E0,-1.654908061E0
1.509929669E0,-6.762768745E0,-2.344627380E-1,-1.832679152E0
1.514934552E0,-6.224263191E0,-1.044423103E0,-1.176489234E0
1.519969952E0,-6.213731289E0,-1.796396255E0,-1.614534855E0
1.525005353E0,-5.849760532E0,-1.815607071E0,-1.066052675E0
1.530010235E0,-5.343415260E0,-1.242980003E0,1.771658808E-1
1.535015118E0,-4.792289257E0,-5.278816223E-1,1.355998755E0
1.540020001E0,-4.064324379E0,1.560401917E-2,2.173595667E0
1.545024884E0,-3.493759394E0,5.730886459E-1,2.084112167E0
1.550029767E0,-3.579537630E0,8.871889114E-1,1.582332730E0
1.555034650E0,-4.105879784E0,7.254114151E-1,1.056294322E0
1.560070050E0,-4.705096245E0,4.493951797E-1,3.770645261E-1
1.565074933E0,-2.937582970E0,2.495870590E-1,4.476000369E-1
1.570079816E0,-1.863993645E0,-2.666864395E-1,2.939006388E-1
1.575084698E0,-1.518156052E0,-8.853578568E-1,-8.574550599E-2
1.580089581E0,-1.079638004E0,-1.373610497E0,-4.166948199E-1
1.585094464E0,-4.677808285E-1,-1.832313538E0,-7.235272527E-1
1.590129864E0,7.428796291E-1,-2.263055801E0,-1.108465910E0
1.595134747E0,1.870048761E0,-2.704589844E0,-1.745983720E0
1.600139630E0,2.107903481E0,-3.154802322E0,-1.840200782E0
1.605144513E0,2.127921104E0,-3.563282967E0,-1.218296885E0
1.610149396E0,2.021518946E0,-3.748396873E0,-7.041722536E-1
1.615184796E0,1.826272964E0,-3.800070763E0,-2.098871768E-1
1.620189679E0,1.669941902E0,-3.656063080E0,1.566005498E-1
1.625194562E0,1.584300756E0,-3.446720123E0,4.019448459E-1
1.630199444E0,1.354671240E0,-3.260145187E0,2.959739864E-1
1.635204327E0,1.624187827E0,-3.222449303E0,-3.780343235E-1
1.640239728E0,1.828141809E0,-3.218637466E0,-6.355450153E-1
1.645244610E0,1.785468698E0,-3.415463448E0,-3.651317358E-1
1.650249493E0,1.494201303E0,-3.561737061E0,-6.078755856E-2
1.655254376E0,8.369243145E-1,-3.725506783E0,-3.518247902E-1
1.660259259E0,3.617333174E-1,-3.871839523E0,4.795301557E-1
1.665264142E0,1.033205867E0,-3.832582474E0,-5.108270049E-1
1.670299542E0,1.413842559E0,-3.542948723E0,4.058195949E-1
1.675304425E0,1.516733527E0,-3.406099319E0,8.661444187E-1
1.680309308E0,1.508723974E0,-3.317842484E0,4.408666193E-1
1.685314191E0,1.636091471E0,-2.886745453E0,-2.476883173E0
1.690319073E0,2.107958317E0,-2.288618088E0,-3.427375793E0
1.695354474E0,2.082456589E0,-2.157065392E0,4.333207607E0
1.700359357E0,1.458158016E0,-2.306814194E0,5.306296825E0
1.705364239E0,1.031941772E0,-2.641387939E0,4.215137959E0
1.710369122E0,5.050939322E-1,-2.717231750E0,3.417015076E0
1.715374005E0,-6.504645348E-1,-2.639770508E0,2.440288544E0
1.720409405E0,-1.291161180E0,-2.436298370E0,1.951630712E0
1.725414288E0,-1.620040298E0,-2.374341011E0,1.015653372E0
1.730419171E0,-2.486835957E0,-2.337706566E0,-3.341791034E-1
1.735424054E0,-2.910753727E0,-2.029077530E0,-1.773711085E0
1.740428937E0,-2.869568825E0,-1.852857590E0,-2.931920528E0
1.745464337E0,-2.775809765E0,-1.797110558E0,-3.624774218E0
1.750469220E0,-2.492164135E0,-1.684062004E0,-3.844901085E0
1.755474103E0,-2.347358704E0,-1.392566681E0,-3.125798464E0
1.760478985E0,-1.866869450E0,-1.226524353E0,-3.009776115E0
1.765483868E0,-1.326954365E0,-1.406502724E0,-2.867155313E0
1.770488751E0,-1.076279163E0,-1.511368752E0,-1.644525051E0
1.775493634E0,-7.452462912E-1,-1.815921783E0,-1.062684536E0
1.780529034E0,-7.872720957E-1,-2.127306938E0,-1.165888667E0
1.785533917E0,-9.313284159E-1,-2.244571686E0,-1.977891564E0
1.790538800E0,-8.391325474E-1,-2.265734673E0,-2.980637789E0
1.795543683E0,-3.347388506E-1,-2.316343307E0,-2.865458012E0
1.800579083E0,1.575982571E-2,-2.388092041E0,-1.881796002E0
1.805583966E0,-2.677109241E-1,-2.841504097E0,-7.260985374E-1
1.810588849E0,-1.964613795E0,-3.062014580E0,2.013518214E-1
1.815593732E0,-3.137875557E0,-2.583457947E0,9.965360165E-1
1.820598614E0,-3.091233253E0,-2.163523674E0,9.081976414E-1
1.825603497E0,-2.942626476E0,-1.564951897E0,5.335081816E-1
1.830638898E0,-2.844707489E0,-8.063297272E-1,7.063962221E-1
1.835643780E0,-2.543384790E0,-5.538320541E-1,7.155675888E-1
1.840648663E0,-1.678613663E0,-1.884622574E-1,3.603093028E-1
1.845653546E0,-5.035316944E-1,7.953929901E-2,2.599964738E-1
1.850658429E0,1.933336258E-2,1.217699051E-1,3.512273431E-1
1.855693829E0,7.385541201E-1,3.127365112E-1,-3.134864569E-2
1.860698712E0,1.503497720E0,2.676687241E-1,-4.155838490E-1
1.865703595E0,2.697230577E0,1.446914673E-2,-8.228036165E-1
1.870708478E0,3.558440208E0,-4.516229630E-1,-1.004779220E0
1.875713360E0,4.309383869E0,-9.823675156E-1,-7.445855141E-1
1.880748761E0,4.511817932E0,-1.476349831E0,-8.383384347E-2
1.885753644E0,4.810983181E0,-1.483719826E0,3.791527152E-1
1.890758527E0,3.572413921E0,-1.350691795E0,1.421884775E0
1.895763409E0,2.494457722E0,-9.993743896E-1,2.522623539E0
1.900768292E0,1.157485247E0,1.373138428E-1,3.010680914E0
1.905773175E0,8.873244524E-1,1.750993729E-1,2.720751286E0
1.910808575E0,1.542849064E0,-4.084205627E-2,2.069534540E0
1.915813458E0,2.456035614E0,4.156684875E-2,9.865777493E-1
1.920818341E0,1.831723213E0,5.578851700E-1,4.553797841E-2
1.925823224E0,2.577967644E-1,8.420095444E-1,-5.715851784E-1
1.930828107E0,7.855892181E-3,7.638998032E-1,-4.302678704E-1
1.935863507E0,2.832803726E-1,9.624061584E-1,-1.431980431E-1
1.940868390E0,5.259370804E-1,1.292797089E0,9.723615646E-2
1.945873273E0,7.814579010E-1,1.288256645E0,6.667712331E-2
1.950878155E0,1.461542368E0,9.581041336E-1,-3.163532615E-1
1.955883038E0,2.108252048E0,9.108295441E-1,-8.962821960E-1
1.960918439E0,2.351373672E0,1.004848480E0,-1.502488375E0
1.965923321E0,2.588261127E0,7.609348297E-1,-1.949091196E0
1.970928204E0,2.600730896E0,9.001731873E-2,-2.032880068E0
1.975933087E0,1.800429344E0,-3.529491425E-1,-1.787209511E0
1.980937970E0,9.311544895E-1,-7.059345245E-1,-1.377495646E0
1.985942853E0,1.867091656E-1,-8.722200394E-1,-9.196624756E-1
1.990978253E0,-3.317964077E-1,-9.606561661E-1,-3.010399640E-1
1.995983136E0,-1.162124157E0,-5.580568314E-1,2.646432221E-1
2.000988019E0,-2.128304005E0,-1.061782837E-1,3.802985847E-1
2.005992902E0,-9.940576553E-1,-1.554279327E-1,2.689398825E-1
2.010997784E0,5.430746078E-2,2.570075989E-1,4.353947937E-1
2.016033185E0,9.558556080E-1,8.243179321E-1,2.808286548E-1
2.021038068E0,1.870994329E0,1.311813354E0,2.092333138E-1
2.026042950E0,2.303375959E0,1.774265289E0,1.609910131E-1
2.031047833E0,2.408854723E0,2.033728600E0,4.206317663E-2
2.036052716E0,2.218076229E0,2.403577805E0,6.699031591E-2
2.041088116E0,2.327485561E0,2.786238670E0,7.314491272E-2
2.046092999E0,3.373472929E0,2.277878761E0,-1.016142368E0
2.051097882E0,3.071811438E0,1.319092751E0,-1.873666048E0
2.056102765E0,1.897250891E0,4.034271240E-1,-2.128303289E0
2.061107648E0,7.625107765E-1,-4.659214020E-1,-1.853768349E0
2.066112530E0,-6.612062454E-3,-1.131206512E0,-1.239953995E0
2.071147931E0,-4.087705612E-1,-1.592409134E0,-9.224201441E-1
2.076152814E0,-4.946832657E-1,-1.749202728E0,-9.343408346E-1
2.081157696E0,-3.888957500E-1,-1.784874916E0,-8.223184347E-1
2.086162579E0,-3.534200191E-1,-1.323563576E0,-9.088563919E-1
2.091167462E0,1.063995361E-1,-1.360035896E0,-5.649287701E-1
2.096202862E0,3.274762630E-1,-1.514881134E0,-7.348070145E-1
2.101207745E0,-2.017402649E-1,-1.626657486E0,-6.468414068E-1
2.106212628E0,-6.747200489E-1,-1.514838219E0,-4.042763710E-1
2.111217511E0,-7.817165852E-1,-1.081601143E0,-3.787150681E-1
2.116222394E0,-2.505705357E-1,-7.298488617E-1,-2.610191405E-1
2.121257794E0,8.782839775E-1,-8.739109039E-1,-1.009970903E-3
2.126262677E0,1.600601912E0,-1.041532516E0,8.836266398E-2
2.131267560E0,1.832660437E0,-1.088419914E0,6.919357181E-2
2.136272443E0,2.151576996E0,-9.609718323E-1,2.730050087E-1
2.141277325E0,2.258787394E0,-8.745918274E-1,4.779460430E-1
2.146282208E0,2.157925367E0,-8.149728775E-1,4.552552104E-1
2.151317609E0,2.024163008E0,-7.281274796E-1,3.430544734E-1
2.156322491E0,2.057603836E0,-7.488679886E-1,8.275404572E-3
2.161327374E0,1.950039387E0,-8.650655746E-1,-1.614829600E-1
2.166332257E0,1.546778202E0,-9.296464920E-1,-1.471973658E-1
2.171337140E0,1.170619488E0,-1.059662819E0,-9.676963836E-2
2.176372540E0,9.164822102E-1,-1.283757210E0,-5.522575974E-1
2.181377423E0,4.027705193E-1,-1.457394600E0,-1.278251886E0
2.186382306E0,-3.399496078E-1,-1.536570549E0,-1.823297977E0
2.191387189E0,-6.775691509E-1,-1.552427292E0,-2.130372047E0
2.196392071E0,-9.649543762E-1,-1.439352989E0,-2.350204945E0
2.201427472E0,-1.009314299E0,-1.315510750E0,-2.640387535E0
2.206432355E0,-5.030362606E-1,-1.082726479E0,-3.129782677E0
2.211437237E0,3.431880474E-1,-1.032858849E0,-3.670091629E0
2.216442120E0,1.074656487E0,-9.782009125E-1,-3.883491278E0
2.221447003E0,1.656234026E0,-7.934522629E-1,-3.210038900E0
2.226482403E0,2.033159494E0,-5.708189011E-1,-1.960280418E0
2.231487286E0,2.213205814E0,-1.229047775E-1,-8.795902729E-1
2.236492169E0,2.012856960E0,2.511730194E-1,-1.527303457E-1
2.241497052E0,1.820288658E0,4.667491913E-1,-1.406537741E-1
2.246501935E0,1.482340336E0,6.111717224E-1,-7.030425072E-1
2.251506818E0,8.135883808E-1,8.755521774E-1,-1.442501187E0
2.256542218E0,1.774516106E-1,1.197607994E0,-1.833080769E0
2.261547101E0,-1.282782555E-1,1.743388176E0,-1.898081899E0
2.266551984E0,-4.082860947E-1,2.253023148E0,-1.835927486E0
2.271556866E0,-8.663821220E-1,2.824149132E0,-1.402911186E0
2.276561749E0,-1.341509342E0,3.420656204E0,-8.107791543E-1
2.281597150E0,-1.590880156E0,3.776068687E0,-2.166304141E-1
2.286602032E0,-1.819643021E0,3.793096542E0,2.348511964E-1
2.291606915E0,-1.928536415E0,3.620858192E0,1.674450338E-1
2.296611798E0,-1.399487019E0,3.188634872E0,3.073082566E-1
2.301616681E0,-4.935505390E-1,2.673904419E0,7.443627715E-1
2.306621564E0,3.639094830E-1,2.168714523E0,9.067705274E-1
2.311656964E0,1.056485295E0,1.675311089E0,9.714881182E-1
2.316661847E0,1.492778420E0,1.315505028E0,1.008304119E0
2.321666730E0,1.663365841E0,9.576845169E-1,1.030507326E0
2.326671612E0,1.865772367E0,9.364223480E-1,8.926934004E-1
2.331676495E0,1.782569051E0,1.191160202E0,7.500661016E-1
2.336711896E0,1.395800471E0,1.173187256E0,1.217145324E0
2.341716778E0,1.182809949E0,1.032864571E0,1.906646609E0
2.346721661E0,1.336913705E0,6.547880173E-1,2.407912970E0
2.351726544E0,1.727130055E0,1.839723587E-1,2.746177673E0
2.356731427E0,1.921142697E0,-1.862421036E-1,2.989349127E0
2.361766827E0,1.645296454E0,-4.134216309E-1,2.538887024E0
2.366771710E0,1.215021133E0,-5.015087128E-1,1.785542369E0
2.371776593E0,7.769989967E-1,-3.384160995E-1,7.827956676E-1
2.376781476E0,2.762174606E-1,-3.575897217E-2,-9.352952242E-3
2.381786359E0,-3.239462376E-1,3.320579529E-1,-6.281887293E-1
2.386791241E0,-8.451130390E-1,7.421588898E-1,-1.122588634E0
2.391826642E0,-1.171234965E0,9.948682785E-1,-1.449000359E0
2.396831525E0,-1.384883523E0,9.900789261E-1,-1.503687143E0
2.401836407E0,-1.732219815E0,1.007606506E0,-1.484616041E0
2.406841290E0,-2.131958246E0,1.062741280E0,-1.514462948E0
2.411846173E0,-2.419005156E0,1.290376663E0,-1.795252323E0
2.416881573E0,-2.719314575E0,1.472804070E0,-1.788461208E0
2.421886456E0,-2.797780037E0,1.193733215E0,-1.551564574E0
2.426891339E0,-2.424713612E0,7.830858231E-1,-1.655469418E0
2.431896222E0,-2.036244392E0,7.095184326E-1,-1.323161244E0
2.436901105E0,-1.388444304E0,6.461296082E-1,-7.757405043E-1
2.441936505E0,-4.614217281E-1,4.696426392E-1,-8.151368499E-1
2.446941388E0,2.430987358E-1,3.891172409E-1,-1.448273659E0
2.451946271E0,6.023001671E-1,7.811164856E-2,-1.683728695E0
2.456951153E0,1.063840389E0,-7.436294556E-1,-1.418414831E0
2.461956036E0,1.495989561E0,-1.550621033E0,-1.486273408E0
2.466991437E0,1.032955885E0,-1.941349983E0,-1.456468225E0
2.471996319E0,6.699341536E-1,-2.277223587E0,-1.263485432E0
2.477001202E0,5.979694128E-1,-2.377777100E0,-9.995900393E-1
2.482006085E0,2.829761505E-1,-2.343953133E0,-9.347950220E-1
2.487010968E0,2.094054222E-2,-2.161722183E0,-9.648542404E-1
2.492015851E0,-4.980802536E-2,-1.934260368E0,-7.877035141E-1
2.497051251E0,-1.511453390E-1,-1.928205490E0,-8.462733030E-1
2.502056134E0,-2.018659115E-1,-1.946006775E0,-1.076656103E0
2.507061017E0,-2.062784433E-1,-2.031943321E0,-1.369335413E0
2.512065900E0,-1.728761196E-1,-2.163064957E0,-1.484328747E0
2.517070782E0,-1.016457081E-1,-1.869752884E0,-1.619827271E0
2.522106183E0,2.832196951E-1,-1.752596855E0,-2.124882698E0
2.527111066E0,4.633163214E-1,-1.614155769E0,-2.167197943E0
2.532115948E0,5.527279377E-1,-1.497486115E0,-2.004806757E0
2.537120831E0,4.303911924E-1,-1.502995491E0,-1.843433976E0
2.542125714E0,1.231398582E-1,-1.581469536E0,-1.593715787E0
2.547161114E0,-4.134731293E-1,-1.530782700E0,-1.334575176E0
2.552165997E0,-9.046119452E-1,-1.241230011E0,-1.212968349E0
2.557170880E0,-1.255486727E0,-1.059827805E0,-1.057783723E0
2.562175763E0,-1.531469464E0,-1.190678596E0,-7.156708837E-1
2.567180646E0,-1.265255809E0,-1.605708122E0,-2.601246834E-1
2.572185528E0,-6.629906893E-1,-1.987608910E0,-4.424079657E-1
2.577220929E0,-7.991230488E-2,-2.208573341E0,-9.230386019E-1
2.582225812E0,7.495582104E-1,-2.512585640E0,-1.398930073E0
2.587230694E0,1.015461683E0,-2.616349220E0,-1.915089846E0
2.592235577E0,7.350767851E-1,-2.486708641E0,-2.218569279E0
2.597240460E0,3.056987524E-1,-2.060570717E0,-2.050600052E0
2.602275860E0,-1.564246416E-1,-1.545282364E0,-1.859396458E0
2.607280743E0,-1.717495918E-1,-5.076189041E-1,-1.729826212E0
2.612285626E0,6.569302082E-2,1.056480408E-2,-1.328494787E0
2.617290509E0,-3.057980537E-2,6.963062286E-2,-1.005404234E0
2.622295392E0,-4.599112272E-1,5.847167969E-2,-9.669973850E-1
2.627330792E0,-9.122920036E-1,-1.230049133E-1,-1.141267776E0
2.632335675E0,-1.134387732E0,-3.523225784E-1,-1.310927153E0
2.637340558E0,-1.289972901E0,-5.359573364E-1,-1.468953609E0
2.642345441E0,-1.267551661E0,-7.933597565E-1,-1.730602741E0
2.647350323E0,-1.078093529E0,-1.113408089E0,-3.180765390E0
2.652355206E0,-8.668813705E-1,-1.951201439E0,-9.895765305E0
2.657390607E0,3.473278284E-1,-1.828265190E0,-6.322054863E0
2.662395489E0,8.177129030E-1,-9.128894806E-1,-2.702597141E0
2.667400372E0,9.388124943E-1,-2.063713074E-1,-2.534738302E0
2.672405255E0,1.203693867E0,3.787603378E-1,-1.731753349E-3
2.677410138E0,1.095204115E0,6.625900269E-1,2.209866524E0
2.682445538E0,1.338266373E0,4.839420319E-1,2.950976133E0
2.687450421E0,1.895323157E0,-2.382278442E-2,3.788675070E0
2.692455304E0,1.770386219E0,-6.825647354E-1,3.226231337E0
2.697460187E0,1.073957682E0,-6.316938400E-1,1.217846394E0
2.702465069E0,1.305165291E-1,-6.796522141E-1,-1.520256519E0
2.707500470E0,-8.608342409E-1,-7.752923965E-1,-3.987198591E0
2.712505353E0,-1.887975693E0,-5.237121582E-1,-4.317083359E0
2.717510235E0,-2.579895496E0,-3.071117401E-2,-3.851360083E0
2.722515118E0,-2.007884026E0,-2.673091888E-1,-3.206843853E0
2.727520001E0,-2.290876865E0,4.234876633E-1,-2.885430336E0
2.732524884E0,-2.197204828E0,4.845590591E-1,-1.806276560E0
2.737560284E0,-2.109752178E0,7.939043045E-1,-8.879969120E-1
2.742565167E0,-1.548973203E0,7.153444290E-1,4.490268230E-2
2.747570050E0,-8.432980776E-1,5.349893570E-1,5.243983269E-1
2.752574933E0,-6.298053265E-1,9.855442047E-1,7.921042442E-1
2.757579816E0,2.163319588E-1,7.310047150E-1,4.024680257E-1
2.762615216E0,8.840299845E-1,-8.913230896E-2,1.526294351E-1
2.767620099E0,3.115326166E-1,5.742654800E-1,4.132731259E-1
2.772624982E0,3.036441803E-1,3.264563560E0,5.945832729E-1
2.777629864E0,4.383997917E-1,5.518591881E0,1.195032358E0
2.782634747E0,7.377697229E-1,7.118316650E0,9.508758783E-1
2.787670148E0,1.830049157E0,6.720042229E0,5.917921066E-1
2.792675030E0,2.850558043E0,5.434412956E0,7.437567711E-1
2.797679913E0,2.619294167E0,5.116048813E0,1.067000628E0
2.802684796E0,2.474227905E0,4.427758217E0,1.512588024E0
2.807689679E0,2.374057293E0,3.604852676E0,1.615237951E0
2.812694562E0,2.941810369E0,3.447117805E0,1.044590950E0
2.817729962E0,4.193912029E0,3.272305489E0,4.341653883E-1
2.822734845E0,5.919362545E0,2.374912262E0,-3.208094835E-1
2.827739728E0,6.337625027E0,2.226591110E0,7.732392550E-1
2.832744610E0,6.601390839E0,1.643447876E-1,2.477172852E0
2.837749493E0,5.355044365E0,-1.348201752E0,3.065707445E0
2.842784894E0,6.884732723E0,-6.888790131E-1,-2.028549910E-1
2.847789777E0,4.633724213E0,-8.607044220E-1,-6.512456536E-1
2.852794659E0,3.738298416E0,6.624403000E-1,9.503843784E-1
2.857799542E0,5.058207035E0,5.627117157E-1,3.115906000E0
2.862804425E0,4.074392796E0,-1.410996437E0,5.193829536E0
2.867839825E0,8.494836092E-1,-4.467296600E-2,4.504222393E0
2.872844708E0,-2.868458271E0,1.602212906E0,3.880523205E0
2.877849591E0,-3.281878948E0,2.319869995E0,3.116339684E0
2.882854474E0,-2.572468281E0,2.019961357E0,2.328710079E0
2.887859357E0,-1.500005364E0,3.577734947E0,-8.427480459E-1
2.892864239E0,-1.567394495E0,7.845975876E0,-4.865894794E0
2.897899640E0,3.808968067E-1,1.103388500E1,-5.207918167E0
2.902904523E0,2.294932604E0,1.303000259E1,-1.731402636E0
2.907909405E0,-5.909968615E-1,1.120048237E1,2.410277367E0
2.912914288E0,-4.203534126E0,7.390468597E0,4.624439240E0
2.917919171E0,-5.130313873E0,1.676494598E0,5.733234882E0
2.922954571E0,-5.119875431E0,-2.950056076E0,4.935284138E0
2.927959454E0,-5.189074516E0,-5.510090828E0,4.388204098E0
2.932964337E0,-3.983963966E0,-8.870229721E0,3.186375618E0
2.937969220E0,-2.200520992E0,-1.225238323E1,2.383909464E0
2.942974103E0,-2.554572105E0,-1.341330910E1,9.952921867E-1
2.948009503E0,-1.856888890E0,-9.135079384E0,-2.117125034E0
2.953014386E0,1.166225076E0,-5.528326035E0,-1.024597168E0
2.958019269E0,1.711170316E0,-6.480636597E0,1.902965784E0
2.963024152E0,2.830414772E-1,-6.999048233E0,2.945028305E0
2.968029034E0,-3.163155317E-1,-7.146177292E0,3.449293375E0
2.973033917E0,1.756340265E-1,-6.519816399E0,3.645855188E0
2.978069318E0,-7.675234079E-1,-3.828172684E0,2.497910500E0
2.983074200E0,-1.104928613E0,-7.163629532E-1,1.598592043E0
2.988079083E0,-5.168390274E-1,2.566325188E0,1.650938034E0
2.993083966E0,1.136958599E-2,4.581948280E0,1.833447456E0
2.998088849E0,8.008159399E-1,5.559766769E0,9.745792747E-1
3.003124249E0,1.589113951E0,6.045173645E0,-3.067185879E-1
3.008129132E0,2.747411251E0,5.644426346E0,-1.821807146E0
3.013134015E0,3.464311123E0,4.530799866E0,-2.974378586E0
3.018138898E0,3.396910191E0,2.970553398E0,-3.607326508E0
3.023143780E0,2.883206844E0,1.172317505E0,-3.377086401E0
3.028179181E0,2.063860655E0,-3.711910248E-1,-2.866435766E0
3.033184064E0,1.479728699E0,-1.338810921E0,-2.269018650E0
3.038188946E0,1.302840948E0,-2.240551949E0,-1.452901244E0
3.043193829E0,1.402490258E0,-3.008539200E0,-1.141543269E0
3.048198712E0,1.504774094E0,-3.680141449E0,-8.014631867E-1
3.053203595E0,1.459907651E0,-4.188535690E0,-5.289165378E-1
3.058238995E0,1.150369644E0,-4.471810341E0,-2.850651145E-1
3.063243878E0,7.722156048E-1,-4.623354912E0,-1.977123022E-1
3.068248761E0,8.780270815E-1,-4.995653152E0,3.649592400E-3
3.073253644E0,8.430626392E-1,-5.272849083E0,1.409735084E-1
3.078258527E0,4.479254484E-1,-5.469438553E0,1.271724701E-2
3.083293927E0,-2.445697784E-2,-5.623618126E0,-7.557672262E-2
3.088298810E0,-2.343533039E-1,-5.585914612E0,-3.862178326E-2
3.093303693E0,-3.422979116E-1,-5.329143524E0,-1.923265457E-1
3.098308575E0,-3.186993599E-1,-4.971914291E0,-2.526539564E-1
3.103313458E0,1.236867905E-2,-4.489341736E0,-1.607506871E-1
3.108348859E0,3.970566988E-1,-4.022783279E0,-2.744495869E-3
3.113353741E0,8.401257992E-1,-3.542510033E0,1.209415793E-1
3.118358624E0,1.221951246E0,-2.734395027E0,3.348243237E-1
3.123363507E0,1.822963834E0,-1.952837944E0,5.759913325E-1
3.128368390E0,2.605216980E0,-1.425017357E0,8.381077647E-1
3.133403790E0,3.638257027E0,-1.028743744E0,1.107948422E0
3.138408673E0,4.777652264E0,-6.911592484E-1,1.509489775E0
3.143413556E0,5.446227074E0,-1.746368408E-1,1.898945689E0
3.148418439E0,5.537800789E0,6.771554947E-1,2.151042223E0
3.153423321E0,5.873820782E0,1.272200584E0,1.869822621E0
3.158428204E0,5.959083557E0,1.565610886E0,1.252003312E0
3.163463605E0,5.074338913E0,1.643114090E0,6.775531769E-1
3.168468487E0,3.480017662E0,1.359853745E0,3.993947506E-1
3.173473370E0,2.461948872E0,1.092391968E0,1.701558977E-1
3.178478253E0,2.326559544E0,8.244171143E-1,-3.403760195E-1
3.183483136E0,2.793285847E0,4.364948273E-1,-9.573782086E-1
3.188518536E0,3.281588078E0,2.129735947E-1,-1.823142290E0
3.193523419E0,3.139626503E0,4.787158966E-2,-2.546319008E0
3.198528302E0,2.574677229E0,-2.290372849E-1,-3.036235571E0
3.203533185E0,1.685439348E0,-6.739730835E-1,-3.188338041E0
3.208538068E0,6.161634922E-1,-9.245681763E-1,-3.233194351E0
3.213542950E0,-8.925318718E-2,-8.496799469E-1,-3.112405777E0
3.218578351E0,-6.703629494E-1,-7.462491989E-1,-2.853729010E0
3.223583234E0,-1.489331961E0,-6.921224594E-1,-2.360402822E0
3.228588116E0,-2.104042768E0,-5.138511658E-1,-1.967331052E0
3.233592999E0,-2.202185631E0,-2.378997803E-1,-1.831655622E0
3.238597882E0,-2.259565830E0,6.498718262E-2,-1.563212633E0
3.243633282E0,-2.061076164E0,4.423761368E-1,-1.486307025E0
3.248638165E0,-1.400613666E0,7.829093933E-1,-1.662935376E0
3.253643048E0,-9.649033546E-1,8.593330383E-1,-1.808158755E0
3.258647931E0,-7.318811417E-1,6.146965027E-1,-1.900393367E0
3.263652814E0,-3.325371742E-1,1.633186340E-1,-1.932335615E0
3.268688214E0,6.643848419E-1,2.694511414E-2,-1.873826027E0
3.273693097E0,1.638291836E0,2.087707520E-1,-1.719207168E0
3.278697980E0,2.070872784E0,5.444803238E-1,-1.573641062E0
3.283702862E0,2.150310278E0,9.573993683E-1,-1.319515705E0
3.288707745E0,1.942729592E0,1.538291931E0,-1.026184797E0
3.293743146E0,1.517652512E0,2.154294014E0,-7.791715264E-1
3.298748028E0,1.256095052E0,2.808995247E0,-7.397933602E-1
3.303752911E0,9.774336815E-1,3.384003639E0,-9.033436775E-1
3.308757794E0,8.402632475E-1,3.739591599E0,-1.276051521E0
3.313762677E0,8.038408756E-1,3.911898613E0,-1.744714260E0
3.318767560E0,9.148529768E-1,3.966873169E0,-2.029807568E0
3.323802960E0,9.683423042E-1,3.885495186E0,-2.067904234E0
3.328807843E0,8.476312160E-1,3.734876633E0,-1.953702211E0
3.333812726E0,5.090166330E-1,3.425493240E0,-1.378386617E0
3.338817609E0,3.473591805E-1,3.012700081E0,-3.721020818E-1
3.343822491E0,1.893426180E-1,2.795549393E0,3.895021081E-1
3.348857892E0,-5.344598293E-1,2.439083099E0,5.477074385E-1
3.353862775E0,-8.333950043E-1,1.955453873E0,8.245408535E-3
3.358867657E0,-1.145301580E0,1.544198990E0,-2.241346240E-1
3.363872540E0,-1.503763914E0,1.064027786E0,2.954550982E-1
3.368877423E0,-1.779888391E0,6.059408188E-1,7.990558743E-1
3.373912823E0,-2.040999889E0,1.544551849E-1,9.731427431E-1
3.378917706E0,-2.210325480E0,-1.780662537E-1,1.067267656E0
3.383922589E0,-1.969964504E0,-3.572072983E-1,1.109849215E0
3.388927472E0,-1.969310641E0,-5.577888489E-1,9.428072572E-1
3.393932355E0,-2.083485603E0,-4.667701721E-1,5.246826410E-1
3.398937237E0,-1.861417174E0,-3.477125168E-1,4.920268059E-2
3.403972638E0,-2.127659559E0,-5.247898102E-1,-2.574720383E-1
3.408977521E0,-2.396584034E0,-8.995122910E-1,-5.990076661E-1
3.413982403E0,-2.807954550E0,-1.218139648E0,-9.848369956E-1
3.418987286E0,-3.071156263E0,-1.139951706E0,-1.378007889E0
3.423992169E0,-3.122879267E0,-8.805541992E-1,-1.639595032E0
3.429027569E0,-2.737127781E0,-3.276634216E-1,-1.727355242E0
3.434032452E0,-2.257070541E0,2.363815308E-1,-1.590099931E0
3.439037335E0,-1.109374762E0,8.391752243E-1,-1.220370293E0
3.444042218E0,2.293404341E-1,1.289494514E0,-6.560384631E-1
3.449047101E0,6.611112356E-1,1.351019859E0,1.171382666E-1
3.454082501E0,1.085509419E0,1.485890388E0,8.160011172E-1
3.459087384E0,1.615122080E0,1.607935905E0,1.025372982E0
3.464092267E0,1.850171924E0,1.689494133E0,8.150955439E-1
3.469097150E0,1.939799905E0,1.634760857E0,7.121557593E-1
3.474102032E0,1.954210639E0,1.421093941E0,6.091400981E-1
3.479106915E0,2.191903114E0,1.166954994E0,8.190291524E-1
3.484142316E0,2.337432623E0,1.067231178E0,1.005309343E0
3.489147198E0,2.322027683E0,1.059652328E0,1.236276150E0
3.494152081E0,2.287609100E0,8.800592422E-1,1.829992771E0
3.499156964E0,2.170095682E0,4.594917297E-1,2.307193518E0
3.504161847E0,2.027450800E0,6.851100922E-2,2.375060558E0
3.509197247E0,1.700105906E0,-5.546751022E-1,2.475477695E0
3.514202130E0,1.500590920E0,-1.063102722E0,2.332506180E0
3.519207013E0,1.149948120E0,-1.433067322E0,1.759566784E0
3.524211896E0,9.071251750E-1,-1.810655594E0,1.117010117E0
3.529216778E0,3.977852166E-1,-1.978455544E0,6.611204743E-1
3.534252179E0,-1.354752183E-1,-1.816083908E0,4.637718201E-3
3.539257062E0,-6.333199739E-1,-1.636081696E0,-4.497217536E-1
3.544261944E0,-1.041191816E0,-1.431336403E0,-8.292452097E-1
3.549266827E0,-1.129495382E0,-1.218585968E0,-1.213355780E0
3.554271710E0,-1.064421535E0,-1.294228554E0,-1.572052479E0
3.559307110E0,-1.132849574E0,-1.684076309E0,-1.893072724E0
3.564311993E0,-1.014958143E0,-2.066028595E0,-1.625640154E0
3.569316876E0,-5.111427307E-1,-2.479452133E0,-1.448624611E0
3.574321759E0,-7.928529382E-2,-2.697215080E0,-1.205249667E0
3.579326642E0,2.368197441E-1,-2.710037231E0,-8.193241954E-1
3.584331525E0,4.431262612E-1,-2.665183067E0,-4.894065261E-1
3.589366925E0,6.299824715E-1,-2.622514725E0,-2.967351079E-1
3.594371808E0,8.824325800E-1,-2.671683311E0,-1.224185824E-1
3.599376691E0,1.058573961E0,-2.712207794E0,-6.846015155E-2
3.604381573E0,1.264293194E0,-2.587526321E0,-2.357534319E-2
3.609386456E0,1.405481577E0,-2.336096764E0,1.355994642E-1
3.614421857E0,1.423276424E0,-2.192285538E0,3.744240403E-1
3.619426739E0,1.278687239E0,-2.295742989E0,4.941033125E-1
3.624431622E0,1.259133339E0,-2.544409752E0,3.740217090E-1
3.629436505E0,1.329654694E0,-2.612811089E0,1.672042310E-1
3.634441388E0,1.267949581E0,-2.344535828E0,-4.919438064E-2
3.639446271E0,1.103944063E0,-2.060256004E0,-2.839112282E-1
3.644481671E0,1.225228548E0,-1.831611633E0,-3.720437884E-1
3.649486554E0,1.212399006E0,-1.743426323E0,-3.998875618E-1
3.654491437E0,9.822083712E-1,-1.881488800E0,-5.267139673E-1
3.659496319E0,8.080947399E-1,-2.178490639E0,-7.464335561E-1
3.664501202E0,4.290757179E-1,-2.462023735E0,-9.638640881E-1
3.669536603E0,1.261754036E-1,-2.596887589E0,-9.809321165E-1
3.674541485E0,4.008746147E-2,-2.637128830E0,-9.460077882E-1
3.679546368E0,-2.824709415E-1,-2.551757812E0,-8.369325399E-1
3.684551251E0,-5.317170620E-1,-2.617086411E0,-8.065038323E-1
3.689556134E0,-7.167602777E-1,-2.757648468E0,-7.942259312E-1
3.694591534E0,-9.532061815E-1,-3.039095879E0,-7.129185200E-1
3.699596417E0,-1.133513451E0,-3.375512123E0,-6.479274631E-1
3.704601300E0,-1.257814884E0,-3.690398216E0,-6.655046344E-1
3.709606183E0,-1.291188955E0,-3.997108459E0,-7.178386450E-1
3.714611066E0,-1.276300073E0,-4.174052238E0,-7.498378158E-1
3.719615948E0,-1.210438251E0,-4.362723351E0,-6.530975103E-1
3.724651349E0,-1.099762201E0,-4.524986267E0,-6.689515114E-1
3.729656232E0,-1.109555244E0,-4.525009155E0,-7.785438299E-1
3.734661114E0,-1.099510670E0,-4.421512604E0,-9.054452181E-1
3.739665997E0,-9.933207035E-1,-4.292336464E0,-9.984552860E-1
3.744670880E0,-8.231861591E-1,-4.100575447E0,-1.031562448E0
3.749706280E0,-7.063331604E-1,-3.872667313E0,-1.094775081E0
3.754711163E0,-6.166851521E-1,-3.692654610E0,-1.170022607E0
3.759716046E0,-5.353515148E-1,-3.547212601E0,-1.280781507E0
3.764720929E0,-4.863796234E-1,-3.340577126E0,-1.381194949E0
3.769725812E0,-4.854555130E-1,-3.162376404E0,-1.470823288E0
3.774761212E0,-5.473387241E-1,-2.908342361E0,-1.464548588E0
3.779766095E0,-6.382534504E-1,-2.650274277E0,-1.425567031E0
3.784770978E0,-6.581661701E-1,-2.352060318E0,-1.211449981E0
3.789775860E0,-7.163367271E-1,-2.024355888E0,-8.971070051E-1
3.794780743E0,-7.818441391E-1,-1.523691177E0,-5.614947081E-1
3.799785626E0,-7.360742092E-1,-8.930950165E-1,-3.083223104E-1
3.804821027E0,-6.127352715E-1,-3.093566895E-1,-9.512865543E-2
3.809825909E0,-4.304778576E-1,2.754602432E-1,1.305259466E-1
3.814830792E0,-1.892769337E-1,7.491750717E-1,3.843146563E-1
3.819835675E0,-7.190465927E-3,9.888143539E-1,6.717110872E-1
3.824840558E0,1.318426132E-1,1.723920822E0,1.263970375E0
3.829875958E0,4.390239716E-1,2.375258446E0,1.304810405E0
3.834880841E0,1.056851149E0,2.872071266E0,1.309569955E0
3.839885724E0,1.392033339E0,3.063697815E0,1.395768285E0
3.844890607E0,1.862185717E0,3.551685333E0,1.481121421E0
3.849895489E0,2.220628977E0,3.892827988E0,1.538764000E0
3.854930890E0,2.014022112E0,3.889597893E0,1.602363706E0
3.859935773E0,1.509822607E0,3.794507980E0,1.603425145E0
3.864940655E0,9.284465313E-1,3.717768669E0,1.506791353E0
3.869945538E0,9.639716148E-2,3.562624931E0,1.318570852E0
3.874950421E0,-7.841951847E-1,3.357216835E0,1.115049958E0
3.879955304E0,-1.425380230E0,3.336285591E0,8.291146755E-1
3.884990704E0,-1.865571976E0,3.407683372E0,5.753215551E-1
3.889995587E0,-2.193101883E0,3.423050880E0,3.513076305E-1
3.895000470E0,-2.349927664E0,3.498796463E0,2.122644186E-1
3.900005353E0,-2.382809162E0,3.471510887E0,4.571199417E-3
3.905010235E0,-2.118937492E0,3.417124748E0,-9.197568893E-2
3.910045636E0,-1.924245834E0,3.247568130E0,-9.462034702E-2
3.915050519E0,-1.809359312E0,3.017971039E0,6.898015738E-2
3.920055402E0,-1.561650991E0,2.879412651E0,2.622824311E-1
3.925060284E0,-1.205316305E0,2.870207787E0,5.013426542E-1
3.930065167E0,-9.210481644E-1,2.984244347E0,9.396343231E-1
3.935100568E0,-4.377541542E-1,3.051753998E0,1.335230350E0
3.940105450E0,4.662508965E-1,3.180525780E0,1.838384628E0
3.945110333E0,7.117433548E-1,3.587036133E0,2.593332291E0
3.950115216E0,-8.551015854E-1,4.338333130E0,3.052437782E0
3.955120099E0,2.729892731E-3,4.458690643E0,2.955149174E0
3.960124982E0,6.439681053E-1,3.710257530E0,3.113590717E0
3.965160382E0,1.920174122E0,2.867887497E0,3.386053801E0
3.970165265E0,2.719032288E0,1.886704445E0,3.972361088E0
3.975170148E0,2.379392147E0,1.890511513E0,4.833421707E0
3.980175030E0,9.713177681E-1,2.082292557E0,5.873170376E0
3.985179913E0,2.112584114E-1,2.316207886E0,6.417316914E0
3.990215314E0,-2.123332024E-1,3.146864891E0,6.637722969E0
3.995220196E0,-1.082383156E0,5.045477867E0,8.066079140E0
4.000225079E0,-6.581778526E-1,4.576820374E0,9.328988075E0
4.005229962E0,4.768457413E-1,1.669449806E0,9.020741463E0
4.010234845E0,1.631865501E0,-1.369447708E-1,7.171424389E0
4.015239728E0,2.631658077E0,-1.199531555E0,5.907236099E0
4.020275128E0,2.365194798E0,-1.466378212E0,5.703589439E0
4.025280011E0,2.012448311E0,-1.522278786E0,5.243246078E0
4.030284894E0,2.205728531E0,-1.445528984E0,4.313378334E0
4.035289777E0,2.387413502E0,-1.078196526E0,3.523634911E0
4.040294659E0,2.619515419E0,-4.910488129E-1,2.696280003E0
4.045330060E0,2.857897282E0,-1.246356964E-1,1.587552786E0
4.050334943E0,3.270664692E0,-3.193950653E-2,1.081332207E0
4.055339825E0,3.542717457E0,-3.789854050E-1,1.000966549E0
4.060344708E0,3.752793789E0,-8.244400024E-1,1.114741564E0
4.065349591E0,3.918214321E0,-1.269202232E0,1.716380835E0
4.070354474E0,3.661655426E0,-1.968029976E0,2.268352509E0
4.075359357E0,3.612560272E0,-2.325181007E0,2.507664919E0
4.080394757E0,4.119210720E0,-2.330794334E0,3.480034828E0
4.085399640E0,4.541458130E0,-2.027067184E0,4.251101971E0
4.090404523E0,4.972051144E0,-1.296809196E0,4.831956387E0
4.095409405E0,5.067712784E0,-5.177307129E-1,5.373553276E0
4.100414288E0,4.989668846E0,1.364231110E-1,5.989608288E0
4.105419171E0,4.677944660E0,6.583786011E-1,6.380696774E0
4.110424054E0,4.069278717E0,8.662843704E-1,6.710951328E0
4.115428937E0,3.269401073E0,5.630617142E-1,6.576176167E0
4.120433819E0,2.353863239E0,-9.035587311E-2,6.039202213E0
4.125469220E0,1.509367943E0,-6.256942749E-1,5.207640171E0
4.130504620E0,6.619787216E-1,-1.007874489E0,4.307134151E0
4.135509503E0,1.909294128E-1,-1.195828438E0,3.598116875E0
4.140514386E0,-9.983348846E-2,-1.365252495E0,3.118014336E0
4.145519269E0,-3.151969910E-1,-1.452743530E0,2.625142813E0
4.150524152E0,-3.662343025E-1,-1.458485603E0,2.107976913E0
4.155529034E0,-4.006896019E-1,-1.408058167E0,1.648347855E0
4.160533917E0,-4.552755356E-1,-1.446550369E0,1.329383373E0
4.165538800E0,-6.600666046E-1,-1.446179390E0,1.211818218E0
4.170543683E0,-1.006045341E0,-1.442834854E0,1.166941643E0
4.175579083E0,-1.124924183E0,-1.456506729E0,1.029535890E0
4.180583966E0,-8.590054512E-1,-1.409275055E0,8.013556004E-1
4.185588849E0,-5.732073784E-1,-1.413972855E0,4.327961206E-1
4.190593732E0,-4.542365074E-1,-1.456109047E0,4.578232765E-2
4.195629132E0,-4.038071632E-1,-1.599935532E0,-2.461293340E-1
4.200634015E0,-3.525333405E-1,-1.797189713E0,-2.915838361E-1
4.205638898E0,-3.194980621E-1,-1.942240715E0,-1.643741131E-1
4.210643780E0,-4.853224754E-1,-1.916473389E0,9.005224705E-2
4.215648663E0,-4.816956520E-1,-1.655264854E0,2.825927734E-2
4.220653546E0,-4.240751266E-1,-1.296106339E0,-5.264031887E-2
4.225688946E0,-2.448320389E-2,-9.860639572E-1,-6.640565395E-2
4.230693829E0,5.045871735E-1,-7.865581512E-1,-6.596517563E-2
4.235698712E0,7.836656570E-1,-6.740379333E-1,4.178047180E-3
4.240703595E0,1.087753296E0,-5.150527954E-1,5.965209007E-2
4.245708478E0,1.291726589E0,-3.207626343E-1,1.744346619E-1
4.250713360E0,2.001227856E0,-3.915977478E-2,5.224708319E-1
4.255748761E0,2.720897198E0,2.029838562E-1,9.091217518E-1
4.260784161E0,2.567859650E0,1.968460083E-1,1.279511094E0
4.265789044E0,2.027549267E0,1.706027985E-2,1.682260275E0
4.270793927E0,2.012770176E0,1.054687500E-1,2.213898182E0
4.275798810E0,1.962042332E0,1.292057037E-1,2.614224911E0
4.280803693E0,1.972517014E0,-2.967491150E-1,2.684573412E0
4.285839093E0,1.105535984E0,-6.526346207E-1,2.369931698E0
4.290843976E0,3.414702415E-1,-6.439514160E-1,2.124451637E0
4.295848859E0,4.219512939E-1,-6.781358719E-1,2.038407326E0
4.300853741E0,7.984085083E-1,-7.662029266E-1,1.996007919E0
4.305858624E0,1.504402161E0,-6.325559616E-1,1.890876770E0
4.310894025E0,1.850159645E0,-8.223094940E-1,1.773001790E0
4.315898907E0,1.158843040E0,-9.270038605E-1,1.459649801E0
4.320903790E0,4.807338715E-1,-9.118633270E-1,1.070514560E0
4.325908673E0,5.036377907E-1,-8.760747910E-1,8.685802221E-1
4.330913556E0,7.388334274E-1,-7.692050934E-1,7.798504829E-1
4.335948956E0,1.083940983E0,-6.120967865E-1,7.891784906E-1
4.340953839E0,1.193502426E0,-6.767807007E-1,9.011589289E-1
4.345958722E0,8.889799118E-1,-9.553213120E-1,1.056737304E0
4.350963605E0,2.808723450E-1,-1.219306946E0,1.100364089E0
4.355968487E0,-3.133916855E-2,-1.510638237E0,1.151694059E0
4.361003888E0,-2.886500359E-1,-1.714989662E0,1.408155918E0
4.366008771E0,-5.526390076E-1,-2.048979759E0,1.478986502E0
4.371013653E0,-8.204979897E-1,-2.479290009E0,1.288318872E0
4.376018536E0,-1.187443733E0,-2.807021141E0,1.314947605E0
4.381023419E0,-1.204597950E0,-2.860049248E0,1.493772030E0
4.386028302E0,-1.219446421E0,-2.619426727E0,1.096380472E0
4.391063702E0,-1.376363277E0,-2.473385811E0,1.568858624E-1
4.396068585E0,-1.262098074E0,-2.386147499E0,-1.640925407E-1
4.401073468E0,-1.176127195E0,-2.186351776E0,-2.945477962E-1
4.406078351E0,-1.110450268E0,-1.950546265E0,-3.680593967E-1
4.411083234E0,-1.100174904E0,-1.824428558E0,-3.577847481E-1
4.416088116E0,-1.118677616E0,-1.675933838E0,-2.608001232E-1
4.421123517E0,-1.162892342E0,-1.660310745E0,-8.094286919E-2
4.426128400E0,-1.063667059E0,-1.689875603E0,-9.513449669E-2
4.431133282E0,-9.038493633E-1,-1.549901962E0,-1.392791271E-1
4.436138165E0,-7.671577930E-1,-1.437355995E0,-2.444219589E-1
4.441173566E0,-7.384581566E-1,-1.218502045E0,-3.941700459E-1
4.446178448E0,-6.869297028E-1,-1.016548157E0,-4.404461384E-1
4.451183331E0,-6.649417877E-1,-9.807653427E-1,-6.016600132E-1
4.456188214E0,-3.203802109E-1,-8.564062119E-1,-6.899576187E-1
4.461193097E0,3.015813828E-1,-6.038150787E-1,-7.743525505E-1
4.466197980E0,2.517595291E-1,-3.206501007E-1,-9.698786736E-1
4.471233380E0,2.657060623E-1,1.737937927E-1,-1.098542213E0
4.476238263E0,6.422450542E-1,5.227327347E-1,-1.219985962E0
4.481243146E0,6.684417725E-1,6.831474304E-1,-1.581644297E0
4.486248028E0,8.219408989E-1,8.996038437E-1,-1.763844728E0
4.491252911E0,9.829516411E-1,9.520692825E-1,-1.923618555E0
4.496288312E0,1.081722975E0,7.930812836E-1,-2.053829908E0
4.501293194E0,1.085950375E0,6.512327194E-1,-2.162767649E0
4.506298077E0,1.039644480E0,5.144681931E-1,-2.340784788E0
4.511302960E0,1.087443113E0,3.946580887E-1,-2.456060171E0
4.516307843E0,1.237567663E0,1.854200363E-1,-2.688052893E0
4.521343243E0,1.410928011E0,-3.048419952E-2,-2.882887363E0
4.526317609E0,1.603229046E0,-2.124710083E-1,-3.113739729E0
4.531353009E0,1.804164886E0,-3.818359375E-1,-3.400894880E0
4.536357892E0,1.826387405E0,-6.092405319E-1,-3.221851110E0
4.541362775E0,2.014855385E0,-7.152385712E-1,-2.991337776E0
4.546367657E0,2.151160717E0,-5.376367569E-1,-3.204235077E0
4.551403058E0,1.990410328E0,-4.496717453E-1,-3.455174208E0
4.556407941E0,1.903748274E0,-4.152069092E-1,-3.527003765E0
4.561412823E0,1.970017195E0,-2.906017303E-1,-3.558842421E0
4.566417706E0,1.945125103E0,-1.779232025E-1,-3.473396778E0
4.571422589E0,1.859810591E0,-1.073150635E-1,-3.449072123E0
4.576457989E0,1.698125601E0,-1.493463516E-1,-3.371620893E0
4.581462872E0,1.457978249E0,-1.701250076E-1,-3.330680370E0
4.586467755E0,1.291687965E0,-1.948690414E-1,-3.285958529E0
4.591472638E0,1.336298704E0,-1.519184113E-1,-3.439016342E0
4.596477521E0,1.484280586E0,-1.611232758E-1,-3.555219889E0
4.601512921E0,1.563449144E0,-1.948537827E-1,-3.643139839E0
4.606517804E0,1.723824263E0,-1.705455780E-1,-3.907879353E0
4.611522687E0,1.949045181E0,-1.500463486E-1,-4.172435760E0
4.616527569E0,2.174849510E0,-1.100721359E-1,-4.421604156E0
4.621532452E0,2.415116310E0,9.795093536E-2,-4.569632530E0
4.626567853E0,2.490280867E0,3.405084610E-1,-4.575775146E0
4.631572735E0,2.377253771E0,5.988006592E-1,-4.436812401E0
4.636577618E0,2.211514473E0,8.466720581E-1,-4.079144955E0
4.641582501E0,1.863570452E0,1.000544548E0,-3.550653458E0
4.646587384E0,1.602530956E0,1.225398064E0,-2.891563177E0
4.651592267E0,1.376864672E0,1.464700699E0,-2.237640381E0
4.656627667E0,1.254957199E0,1.608036995E0,-1.395569563E0
4.661632550E0,1.222432375E0,1.780146599E0,-6.110029221E-1
4.666637433E0,1.158445120E0,1.894257545E0,2.060256004E-1
4.671642316E0,9.272866249E-1,1.749053001E0,9.423139095E-1
4.676647198E0,4.134290218E-1,1.175958633E0,1.461578131E0
4.681652081E0,4.660420418E-1,8.543462753E-1,1.887927771E0
4.686687482E0,9.817390442E-1,8.057651520E-1,2.358570099E0
4.691692364E0,1.508593321E0,9.493970871E-1,2.708558559E0
4.696697247E0,1.922281504E0,1.219944954E0,2.695268631E0
4.701702130E0,2.225456238E0,1.504070282E0,2.456030846E0
4.706707013E0,2.386311769E0,1.616129875E0,1.994330168E0
4.711742413E0,2.567282438E0,1.587529182E0,1.320356369E0
4.716747296E0,2.629201651E0,1.350559235E0,6.904149055E-1
4.721752179E0,2.440896511E0,9.844169617E-1,1.663594246E-1
4.726757062E0,2.176999092E0,6.457395554E-1,-3.196740150E-1
4.731792462E0,2.041923285E0,3.571128845E-1,-6.075761318E-1
4.736797345E0,1.988842249E0,1.739740372E-1,-7.225463390E-1
4.741802228E0,1.965967417E0,6.163406372E-2,-5.608410835E-1
4.746807110E0,2.156853914E0,3.420925140E-2,-2.989037037E-1
4.751811993E0,2.334448338E0,-7.152271271E-2,-4.012441635E-2
4.756816876E0,2.425925016E0,-1.950778961E-1,1.666035652E-1
4.761821759E0,2.443964005E0,-3.859119415E-1,3.266057968E-1
4.766857159E0,2.407629728E0,-5.950469971E-1,3.903934956E-1
4.771862042E0,2.140296221E0,-8.559179306E-1,4.381709099E-1
4.776866925E0,1.881852865E0,-1.116980076E0,4.728131294E-1
4.781871808E0,1.590592861E0,-1.348939419E0,5.731482506E-1
4.786876691E0,1.438921928E0,-1.535535336E0,7.049953938E-1
4.791881573E0,1.426535845E0,-1.679904461E0,7.562360764E-1
4.796916974E0,1.366497040E0,-1.702218533E0,7.864098549E-1
4.801921857E0,1.282255411E0,-1.656179428E0,8.160820007E-1
4.806926739E0,1.268538952E0,-1.571140766E0,8.521809578E-1
4.811931622E0,1.092338085E0,-1.600161076E0,8.741827011E-1
4.816967023E0,1.050168276E0,-1.650913715E0,9.153938293E-1
4.821971905E0,1.062123060E0,-1.668852806E0,1.025419712E0
4.826976788E0,9.282062054E-1,-1.660151482E0,1.068438053E0
4.831981671E0,8.840386868E-1,-1.652775764E0,1.149296761E0
4.836986554E0,6.642417908E-1,-1.697437763E0,1.126344204E0
4.841991437E0,6.441385746E-1,-1.730715752E0,1.129173279E0
4.846996319E0,8.924722672E-1,-1.707695484E0,1.277344704E0
4.852001202E0,8.519001007E-1,-1.819978714E0,1.174067974E0
4.857036603E0,6.755647659E-1,-1.916354656E0,9.985899925E-1
4.862041485E0,8.913593292E-1,-1.903929710E0,1.022682190E0
4.867046368E0,1.069972038E0,-1.901790619E0,1.072292328E0
4.872051251E0,1.077091217E0,-1.886267662E0,9.845900536E-1
4.877086652E0,1.001966953E0,-1.778250694E0,9.466433525E-1
4.882091534E0,7.530732155E-1,-1.667361736E0,9.385619164E-1
4.887096417E0,5.840559006E-1,-1.572046757E0,8.551263809E-1
4.892101300E0,6.466813087E-1,-1.429453850E0,7.741155624E-1
4.897106183E0,7.497820854E-1,-1.231279373E0,6.986227036E-1
4.902111066E0,7.251181602E-1,-1.105349541E0,8.096330166E-1
4.907146466E0,7.789301872E-1,-9.426732063E-1,8.564624786E-1
4.912151349E0,8.230719566E-1,-8.021802902E-1,9.384086132E-1
4.917156232E0,9.710249901E-1,-6.287531853E-1,1.140298605E0
4.922161114E0,1.212072849E0,-3.006467819E-1,1.359212875E0
4.927165997E0,1.487702847E0,-1.219463348E-2,1.525141716E0
4.932201398E0,1.655588150E0,2.413897514E-1,1.757797956E0
4.937206280E0,1.817248344E0,4.525132179E-1,2.056697369E0
4.942211163E0,1.988938808E0,7.224965096E-1,2.360963821E0
4.947216046E0,2.141677856E0,9.982686043E-1,2.636924267E0
4.952220929E0,2.270738602E0,1.246237278E0,2.852625847E0
4.957256329E0,2.433638096E0,1.390159607E0,2.981280088E0
4.962261212E0,2.545183659E0,1.499826431E0,3.133471966E0
4.967266095E0,2.772831440E0,1.681735039E0,3.270709515E0
4.972270978E0,2.887306213E0,1.739655018E0,3.312396049E0
4.977306378E0,3.002362728E0,1.814816475E0,3.305176497E0
4.982311261E0,3.144423962E0,1.902695179E0,3.213573217E0
4.987316144E0,3.198573589E0,1.937630177E0,3.090138435E0
4.992321027E0,3.221088409E0,1.814704418E0,2.810019016E0
4.997325909E0,3.157753468E0,1.709097862E0,2.648015738E0
5.002361310E0,3.306811810E0,1.671434402E0,2.398623705E0
5.007366193E0,3.530628681E0,1.607424259E0,2.044229269E0
5.012371075E0,3.580892563E0,1.449838161E0,1.865785122E0
5.017375958E0,3.583288193E0,1.288640499E0,1.729923964E0
5.022380841E0,3.528263092E0,1.109484196E0,1.558851957E0
5.027416241E0,3.527856827E0,1.023775578E0,1.444777012E0
5.032421124E0,3.586873531E0,9.611415863E-1,1.403434992E0
5.037426007E0,3.675564289E0,9.011278152E-1,1.269472837E0
5.042430890E0,3.705285072E0,8.772540092E-1,1.204368591E0
5.047435773E0,3.666301727E0,7.924799919E-1,1.100068808E0
5.052440655E0,3.658912659E0,6.850333214E-1,1.055310488E0
5.057476056E0,3.674720287E0,5.212664604E-1,1.095559359E0
5.062480939E0,3.773418903E0,4.350538254E-1,1.075251341E0
5.067485821E0,3.878829956E0,3.947544098E-1,1.011613846E0
5.072490704E0,3.900143623E0,3.332023621E-1,1.005352497E0
5.077495587E0,3.854972839E0,2.745528221E-1,9.276773930E-1
5.082500470E0,3.847322941E0,1.363506317E-1,9.089760780E-1
5.087535870E0,3.897542953E0,4.901838303E-2,8.522672653E-1
5.092540753E0,3.734499931E0,-1.624584198E-3,8.854858875E-1
5.097545636E0,3.511558533E0,-1.254110336E-1,9.553048611E-1
5.102550519E0,3.328995705E0,-1.546483040E-1,1.010162354E0
5.107585919E0,3.094542027E0,-2.519745827E-1,9.664719105E-1
5.112590802E0,2.876306057E0,-4.311003685E-1,9.054501057E-1
5.117595685E0,2.809134960E0,-5.161900520E-1,9.662873745E-1
5.122600568E0,2.641736507E0,-6.269354820E-1,9.397389889E-1
5.127605450E0,2.373610497E0,-7.691898346E-1,8.326997757E-1
5.132640851E0,2.208533287E0,-8.983969688E-1,7.355918884E-1
5.137645734E0,1.981944084E0,-1.026257515E0,7.348692417E-1
5.142650616E0,1.813725471E0,-1.024882317E0,8.311102390E-1
5.147655499E0,1.694401264E0,-1.074909687E0,8.181309700E-1
5.152660382E0,1.602528572E0,-1.163205624E0,7.748749256E-1
5.157665265E0,1.531135559E0,-1.173936844E0,7.337639332E-1
5.162700665E0,1.279596329E0,-1.199234486E0,7.838587761E-1
5.167705548E0,1.069458485E0,-1.265422821E0,6.667482853E-1
5.172710431E0,9.737682343E-1,-1.275700092E0,5.989887714E-1
5.177715314E0,7.815690041E-1,-1.339257717E0,7.102735043E-1
5.182720196E0,5.091972351E-1,-1.411870480E0,8.023328781E-1
5.187755597E0,3.331174850E-1,-1.454224586E0,8.615417480E-1
5.192760480E0,1.682348251E-1,-1.441456795E0,8.467583656E-1
5.197765362E0,1.924228668E-2,-1.464567184E0,8.852767944E-1
5.202770245E0,-8.433818817E-2,-1.394579411E0,1.030655861E0
5.207775128E0,-5.776691437E-2,-1.247472286E0,1.181026459E0
5.212780011E0,-5.490922928E-2,-9.915595055E-1,1.324814558E0
5.217815411E0,-1.816396713E-1,-7.312097549E-1,1.477483511E0
5.222820294E0,-2.362790108E-1,-5.407133102E-1,1.690359354E0
5.227825177E0,-1.157174110E-1,-2.636103630E-1,1.805738926E0
5.232830060E0,-7.810115814E-3,-7.245206833E-2,1.805230379E0
5.237834943E0,1.334662437E-1,1.286969185E-1,1.932091713E0
5.242870343E0,2.644906044E-1,3.194537163E-1,2.242077112E0
5.247875226E0,3.312673569E-1,4.317188263E-1,2.490477800E0
5.252880109E0,4.187397957E-1,4.893298149E-1,2.499720573E0
5.257884991E0,4.614019394E-1,4.217410088E-1,2.458791018E0
5.262889874E0,4.224452972E-1,4.072771072E-1,2.269448280E0
5.267925275E0,3.501868248E-1,2.988967896E-1,1.964741230E0
5.272930157E0,2.561473846E-1,1.465034485E-1,1.561574459E0
5.277935040E0,1.764259338E-1,9.166717529E-2,1.179558754E0
5.282939923E0,3.822183609E-2,5.337619781E-2,8.365893364E-1
5.287944806E0,4.026460648E-2,-5.290985107E-2,3.139045238E-1
5.292980206E0,2.207651138E-1,-6.920814514E-3,-3.280436993E-1
5.297985089E0,3.986124992E-1,4.592418671E-2,-9.731593132E-1
5.302989972E0,5.000710487E-1,1.019945145E-1,-1.407810211E0
5.307994855E0,5.970501900E-1,1.255397797E-1,-1.721406937E0
5.312999737E0,7.986114025E-1,1.022119522E-1,-1.866421223E0
5.318004620E0,9.148061275E-1,9.398174286E-2,-1.946870804E0
5.323040021E0,9.673748016E-1,1.103687286E-2,-2.097794533E0
5.328044903E0,9.332423210E-1,-7.459735870E-2,-2.232944965E0
5.333049786E0,9.380385876E-1,-1.906538010E-1,-2.416249990E0
5.338054669E0,8.916411400E-1,-2.784023285E-1,-2.629511833E0
5.343059552E0,7.568452358E-1,-4.095821381E-1,-2.758941174E0
5.348094952E0,6.195988655E-1,-5.567407608E-1,-2.954766750E0
5.353099835E0,5.145368576E-1,-6.967048645E-1,-3.119711161E0
5.358104718E0,5.002036095E-1,-7.985582352E-1,-3.132659674E0
5.363109601E0,4.657542706E-1,-9.056415558E-1,-3.132469893E0
5.368114484E0,3.608562946E-1,-1.009456635E0,-3.098984003E0
5.373119366E0,2.886233330E-1,-1.081480026E0,-3.109819651E0
5.378124249E0,1.894142628E-1,-1.230671883E0,-3.088297367E0
5.383129132E0,1.022403240E-1,-1.420935631E0,-3.076113939E0
5.388164532E0,5.238699913E-2,-1.596257210E0,-3.090859175E0
5.393169415E0,1.430511475E-6,-1.764863014E0,-3.039222479E0
5.398174298E0,-3.290176392E-3,-1.923428535E0,-2.938829660E0
5.403179181E0,-1.826262474E-2,-2.057816505E0,-2.940093040E0
5.408184064E0,2.031469345E-2,-2.199270248E0,-2.935682535E0
5.413219464E0,-5.961513519E-2,-2.253392220E0,-2.892172098E0
5.418224347E0,-1.327347755E-1,-2.293013573E0,-2.849177361E0
5.423229230E0,-1.225538254E-1,-2.352853775E0,-2.766075373E0
5.428234112E0,-9.361386299E-2,-2.348065376E0,-2.700127602E0
5.433238995E0,-2.696514130E-2,-2.311125755E0,-2.634077549E0
5.438274396E0,3.168821335E-2,-2.232587814E0,-2.550621271E0
5.443279278E0,1.104867458E-1,-2.096798897E0,-2.431687593E0
5.448284161E0,1.999807358E-1,-1.981754303E0,-2.325780392E0
5.453289044E0,3.145005703E-1,-1.854115486E0,-2.182075739E0
5.458293927E0,3.707451820E-1,-1.706864357E0,-2.055567026E0
5.463298810E0,4.799182415E-1,-1.602159500E0,-1.943843126E0
5.468334210E0,6.089084148E-1,-1.480323792E0,-1.881317377E0
5.473339093E0,8.412885666E-1,-1.340010643E0,-1.851575136E0
5.478343976E0,1.059063673E0,-1.261519432E0,-1.874750614E0
5.483348859E0,1.133326769E0,-1.248295784E0,-1.908077240E0
5.488353741E0,1.218254805E0,-1.191220284E0,-1.971041918E0
5.493389142E0,1.386948347E0,-1.196722031E0,-2.051817894E0
5.498394025E0,1.497902393E0,-1.212881088E0,-2.165956020E0
5.503398907E0,1.666249514E0,-1.219305038E0,-2.232530355E0
5.508403790E0,1.862101078E0,-1.268439293E0,-2.327764034E0
5.513408673E0,1.997179985E0,-1.326669693E0,-2.415302753E0
5.518444073E0,2.073024511E0,-1.423895836E0,-2.526519299E0
5.523448956E0,2.195299149E0,-1.466332436E0,-2.548873186E0
5.528453839E0,2.424736977E0,-1.489944458E0,-2.652168989E0
5.533458722E0,2.537727356E0,-1.514950752E0,-2.663730621E0
5.538463605E0,2.610946417E0,-1.487640381E0,-2.527400494E0
5.543499005E0,2.740101337E0,-1.485917091E0,-2.483289719E0
5.548503888E0,2.788802624E0,-1.532453537E0,-2.371309280E0
5.553508771E0,2.864939451E0,-1.602214813E0,-2.278500319E0
5.558513653E0,2.862128496E0,-1.676089287E0,-2.180962324E0
5.563518536E0,2.912085533E0,-1.737449646E0,-2.043761253E0
5.568523419E0,2.910852909E0,-1.795989990E0,-2.002906799E0
5.573558819E0,2.773680210E0,-1.887700081E0,-1.940676093E0
5.578563702E0,2.650683403E0,-1.953707695E0,-1.927852035E0
5.583568585E0,2.664780617E0,-2.063425064E0,-1.969863057E0
5.588573468E0,2.576510906E0,-2.159415245E0,-2.006612062E0
5.593578351E0,2.449366093E0,-2.279961586E0,-2.034488201E0
5.598613751E0,2.299075603E0,-2.496832848E0,-2.046385765E0
5.603618634E0,2.093284130E0,-2.650796890E0,-2.073651314E0
5.608623517E0,1.878615856E0,-2.862701416E0,-2.115154028E0
5.613658917E0,1.673429012E0,-3.058493614E0,-2.054681778E0
5.618663800E0,1.414239168E0,-3.183156013E0,-2.045489073E0
5.623668683E0,1.067774773E0,-3.419758797E0,-1.991907239E0
5.628673566E0,7.389440536E-1,-3.622177124E0,-2.011186600E0
5.633678448E0,4.420559406E-1,-3.752203941E0,-1.985990167E0
5.638683331E0,1.494305134E-1,-3.887621880E0,-1.891265154E0
5.643718732E0,-8.036804199E-2,-3.963909149E0,-1.808033228E0
5.648723614E0,-2.882862091E-1,-3.997881889E0,-1.690533638E0
5.653728497E0,-4.982690811E-1,-3.999182701E0,-1.595767975E0
5.658733380E0,-5.636692047E-1,-4.018089294E0,-1.403471470E0
5.663738263E0,-6.887791157E-1,-4.036807060E0,-1.213539958E0
5.668773663E0,-7.587425709E-1,-4.072143555E0,-1.127006531E0
5.673778546E0,-7.687196732E-1,-4.122909546E0,-1.005120873E0
5.678783429E0,-8.356087208E-1,-4.105494499E0,-9.385696650E-1
5.683788312E0,-9.677939415E-1,-4.084540367E0,-8.494819403E-1
5.688793194E0,-1.124682188E0,-3.967901230E0,-7.355651855E-1
5.693828595E0,-1.220852613E0,-3.833251953E0,-6.576330662E-1
5.698833478E0,-1.292442083E0,-3.623082161E0,-5.382975340E-1
5.703838360E0,-1.418807030E0,-3.447366714E0,-3.847290277E-1
5.708843243E0,-1.400462627E0,-3.236614227E0,-1.886758804E-1
5.713848126E0,-1.395145178E0,-3.069828987E0,1.152724028E-2
5.718853009E0,-1.219536781E0,-2.860934258E0,1.835703254E-1
5.723888409E0,-9.555847645E-1,-2.640095711E0,3.935503960E-1
5.728893292E0,-8.501086235E-1,-2.466017723E0,5.820389390E-1
5.733898175E0,-9.243721962E-1,-2.324352264E0,7.746776342E-1
5.738903058E0,-9.413874149E-1,-1.975890160E0,8.267621398E-1
5.743907941E0,-1.100244761E0,-1.242577553E0,1.203599811E0
5.748943341E0,-1.636455297E0,-2.955102921E-1,1.830404162E0
5.753948224E0,-1.997910500E0,9.875822067E-1,2.417997360E0
5.758953107E0,-2.270746469E0,2.775459290E0,3.104454517E0
5.763957989E0,-2.577078819E0,4.981035233E0,3.849313259E0
5.768962872E0,-2.877577782E0,7.676404953E0,4.775272369E0
5.773998273E0,-3.184581757E0,1.062655449E1,5.362375736E0
5.779003155E0,-3.442780256E0,1.353345871E1,5.376224995E0
5.784008038E0,-3.264288425E0,1.615582657E1,4.890260220E0
5.789012921E0,-2.193091631E0,1.830345154E1,3.937661409E0
5.794017804E0,-4.041380882E-1,1.975768661E1,2.229216337E0
5.799022687E0,1.943705797E0,2.021386337E1,2.434815168E-1
5.804058087E0,5.370220184E0,1.978471756E1,-1.972988725E0
5.809062970E0,8.358155251E0,1.848443985E1,-4.090443134E0
5.814067853E0,8.655759811E0,1.665205765E1,-5.617196083E0
5.819072735E0,6.310202599E0,1.402728939E1,-6.214623451E0
5.824077618E0,2.579455137E0,1.103759193E1,-5.803798676E0
5.829113019E0,-5.508081913E-1,8.488379478E0,-4.853723049E0
5.834117902E0,-2.863669395E0,6.718576431E0,-3.498381615E0
5.839122784E0,-4.079319000E0,5.573752403E0,-2.261865616E0
5.844127667E0,-3.941703320E0,4.713170052E0,-1.272572994E0
5.849132550E0,-3.482305527E0,4.097732544E0,-4.786644578E-1
5.854167950E0,-3.053579807E0,3.761955261E0,1.112688631E-1
5.859172833E0,-2.613520622E0,3.516748428E0,4.474984109E-1
5.864177716E0,-2.081496954E0,3.185947418E0,6.831507087E-1
5.869182599E0,-1.485684156E0,2.898345947E0,8.857677579E-1
5.874187482E0,-9.620015621E-1,2.456108093E0,9.417523742E-1
5.879192364E0,-5.720734596E-1,1.860167503E0,8.262840509E-1
5.884227765E0,-2.026858330E-1,1.309849739E0,5.798650980E-1
5.889232648E0,1.089992523E-1,7.523221970E-1,2.535132170E-1
5.894237530E0,1.624147892E-1,1.997566223E-2,-1.145732403E-2
5.899242413E0,4.287481308E-2,-7.865591049E-1,-1.878988743E-1
5.904247296E0,-8.980298042E-2,-1.585659981E0,-3.432579637E-1
5.909282696E0,-3.386127949E-1,-2.402283669E0,-5.724633336E-1
5.914287579E0,-5.946664810E-1,-3.185741425E0,-7.987838387E-1
5.919292462E0,-8.295869827E-1,-3.928675652E0,-1.068890929E0
5.924297345E0,-1.019007444E0,-4.622470856E0,-1.393585920E0
5.929302228E0,-1.138455153E0,-5.394883156E0,-1.693535805E0
5.934337628E0,-1.148698568E0,-6.086651802E0,-2.059610605E0
5.939342511E0,-1.160862684E0,-6.839862823E0,-2.397654533E0
5.944347394E0,-1.129525185E0,-7.486980438E0,-2.664291143E0
5.949352277E0,-1.115729332E0,-8.157251358E0,-2.874355555E0
5.954357159E0,-1.025059938E0,-8.539754868E0,-3.010281086E0
5.959362042E0,-1.014691114E0,-8.851400375E0,-3.279306889E0
5.964397443E0,-1.161992311E0,-9.283607483E0,-3.345534325E0
5.969402325E0,-1.291160345E0,-9.595658302E0,-3.347029686E0
5.974407208E0,-1.439793825E0,-9.804294586E0,-3.402140141E0
5.979412091E0,-1.441316605E0,-9.951429367E0,-3.471402645E0
5.984416974E0,-1.474442244E0,-1.012799835E1,-3.609388351E0
5.989452374E0,-1.485051155E0,-1.024537373E1,-3.707825661E0
5.994457257E0,-1.380599737E0,-1.022950268E1,-3.845743656E0
5.999462140E0,-1.372655392E0,-1.028992558E1,-3.916562557E0
6.004467023E0,-1.321636915E0,-1.031185436E1,-3.870282888E0
6.009471905E0,-1.089794159E0,-1.018070984E1,-3.828817844E0
6.014507306E0,-7.826380730E-1,-9.984227180E0,-3.792381763E0
6.019512189E0,-4.974632263E-1,-9.714478493E0,-3.680018663E0
6.024517071E0,-2.356255054E-1,-9.352616310E0,-3.510323286E0
6.029521954E0,-6.389689445E-2,-8.862010956E0,-3.455788612E0
6.034526837E0,7.369470596E-2,-8.287281990E0,-3.356013298E0
6.039531720E0,2.255535126E-2,-7.689711571E0,-3.225554466E0
6.044567120E0,-1.855430603E-1,-7.178187370E0,-3.112778187E0
6.049572003E0,-3.543114662E-1,-6.690409660E0,-2.955625057E0
6.054576886E0,-4.921996593E-1,-6.241822243E0,-2.845410585E0
6.059581769E0,-6.020386219E-1,-5.822721481E0,-2.727117538E0
6.064586652E0,-5.871338844E-1,-5.302707672E0,-2.667817593E0
6.069622052E0,-5.590689182E-1,-4.765515327E0,-2.622145176E0
6.074626935E0,-5.133783817E-1,-4.109481812E0,-2.775336266E0
6.079631818E0,-4.006304741E-1,-3.423011780E0,-2.953883648E0
6.084636700E0,-2.360069752E-1,-2.526588440E0,-3.129085541E0
6.089641583E0,-1.512289047E-3,-1.387970924E0,-3.392728806E0
6.094676984E0,3.639409542E-1,-1.650314331E-1,-3.628575087E0
6.099681866E0,8.873982430E-1,1.144490242E0,-3.919746876E0
6.104686749E0,1.747362852E0,2.586007118E0,-4.216597557E0
6.109691632E0,2.983500481E0,4.091012001E0,-4.414760590E0
6.114696515E0,4.346902370E0,5.600413322E0,-4.426824093E0
6.119701398E0,5.588797569E0,6.956838608E0,-4.322053432E0
6.124736798E0,6.493532181E0,8.269931793E0,-4.119531631E0
6.129741681E0,6.922161579E0,9.381345749E0,-3.849104643E0
6.134746564E0,6.894499779E0,1.027101898E1,-3.539731026E0
6.139751446E0,6.378008842E0,1.080076027E1,-3.397183418E0
6.144756329E0,5.338360310E0,1.093453312E1,-3.247388601E0
6.149791730E0,4.191872120E0,1.073734760E1,-3.265074253E0
6.154796612E0,3.313776016E0,1.029772568E1,-3.441142082E0
6.159801495E0,2.901578665E0,9.883172035E0,-3.719794273E0
6.164806378E0,2.760511160E0,9.630048752E0,-3.932761908E0
6.169811261E0,2.622306824E0,9.593091965E0,-4.103005409E0
6.174846661E0,2.400002241E0,9.546046257E0,-4.115108967E0
6.179851544E0,2.180868864E0,9.562706947E0,-3.930958748E0
6.184856427E0,1.922948122E0,9.504149437E0,-3.502913952E0
6.189861310E0,1.756683111E0,9.328209877E0,-2.956031799E0
6.194866193E0,1.785440922E0,9.137261391E0,-2.209242344E0
6.199901593E0,1.731112719E0,8.899523735E0,-1.378866673E0
6.204906476E0,1.706178427E0,8.787599564E0,-4.833217859E-1
6.209911359E0,1.692657232E0,8.749560356E0,3.186833858E-1
6.214916241E0,1.606513023E0,8.996741295E0,1.075555563E0
6.219921124E0,1.697296858E0,9.484441757E0,1.726252556E0
6.224926007E0,1.780476332E0,9.968432426E0,2.398404598E0
6.229961407E0,1.916477203E0,1.035428905E1,3.087169647E0
6.234966290E0,2.183745384E0,1.051280499E1,3.654945374E0
6.239971173E0,2.483590126E0,1.025876427E1,4.059086800E0
6.244976056E0,2.522363424E0,9.609053612E0,4.358779430E0
6.249980939E0,2.383947372E0,8.738615990E0,4.437182426E0
6.255016339E0,1.872787476E0,7.638295174E0,4.358649254E0
6.260021222E0,1.314406157E0,6.530172348E0,4.288235664E0
6.265026105E0,8.967611790E-1,5.434081078E0,4.120658398E0
6.270030987E0,6.999423504E-1,4.476158142E0,3.923634529E0
6.275035870E0,6.430172920E-1,3.655409813E0,3.805397987E0
6.280071271E0,7.559182644E-1,2.833396912E0,3.603859186E0
6.285076153E0,1.011034489E0,2.569134712E0,3.167376041E0
6.290081036E0,1.269926548E0,2.470879555E0,2.991079330E0
6.295085919E0,1.392480135E0,2.261994362E0,3.004741192E0
6.300090802E0,1.501446486E0,2.066839218E0,3.149912834E0
6.305095685E0,1.499022007E0,2.042037964E0,3.389326572E0
6.310131085E0,1.395857811E0,2.005755424E0,3.829639196E0
6.315135968E0,1.567929268E0,1.977477074E0,4.272921562E0
6.320140851E0,1.714804173E0,1.915219307E0,4.780766487E0
6.325145734E0,2.064758301E0,1.626465797E0,5.518365383E0
6.330153789E0,2.216232538E0,1.370609283E0,5.454496861E0
6.335189190E0,2.169415951E0,1.090106010E0,4.884966850E0
6.340194073E0,1.961754322E0,8.318881989E-1,4.464264393E0
6.345198955E0,1.779151201E0,4.095792770E-1,4.121562004E0
6.350203838E0,1.501804829E0,-4.759788513E-2,3.665462017E0
6.355208721E0,1.209638357E0,-5.061874390E-1,3.442494869E0
6.360244121E0,1.071702719E0,-1.078957558E0,3.241358757E0
6.365249004E0,8.529672623E-1,-1.561703682E0,3.142795563E0
6.370253887E0,7.110252380E-1,-1.809054375E0,2.901578903E0
6.375258770E0,1.724257469E-1,-1.964496613E0,2.319259167E0
6.380263653E0,-5.013954639E-1,-2.418517113E0,1.615629911E0
6.385268535E0,-1.141908884E0,-3.004547119E0,1.401187420E0
6.390303936E0,-1.687848091E0,-3.680257797E0,1.389957905E0
6.395308819E0,-2.085520029E0,-4.431535721E0,1.647728443E0
6.400313701E0,-2.286970139E0,-4.987139702E0,1.833918452E0
6.405318584E0,-2.105409384E0,-5.602287292E0,1.960083842E0
6.410323467E0,-1.741512060E0,-6.226277351E0,2.110833406E0
6.415358867E0,-1.464866161E0,-6.648825645E0,2.417296410E0
6.420363750E0,-1.333397388E0,-7.060349464E0,2.287782431E0
6.425368633E0,-1.267431498E0,-7.473018646E0,2.147208214E0
6.430373516E0,-1.215386868E0,-7.818673134E0,2.085290670E0
6.435378399E0,-1.105150461E0,-8.091582298E0,1.989797711E0
6.440413799E0,-1.036803007E0,-8.297984123E0,1.986169815E0
6.445418682E0,-1.056663990E0,-8.416527748E0,1.879271984E0
6.450423565E0,-1.092699528E0,-8.605256081E0,1.710776806E0
6.455428448E0,-1.047088385E0,-8.713382721E0,1.595647454E0
6.460433330E0,-1.101527214E0,-8.774545670E0,1.397631645E0
6.465438213E0,-1.096507788E0,-8.811712265E0,1.161436081E0
6.470473614E0,-1.097573757E0,-8.793921471E0,9.611621499E-1
6.475478496E0,-1.173247099E0,-8.777397156E0,7.962727547E-1
6.480483379E0,-1.229130268E0,-8.705882072E0,6.614905000E-1
6.485488262E0,-1.367161989E0,-8.623661041E0,5.342360735E-1
6.490493145E0,-1.524572849E0,-8.462431908E0,3.632771969E-1
6.495528545E0,-1.719823122E0,-8.210183144E0,2.668600082E-1
6.500533428E0,-2.031108618E0,-7.918023109E0,2.058623433E-1
6.505538311E0,-2.300497055E0,-7.564181328E0,1.503411531E-1
6.510543194E0,-2.408461332E0,-7.159238815E0,1.268943548E-1
6.515548076E0,-2.538100481E0,-6.755605698E0,1.344843507E-1
6.520583477E0,-2.521466255E0,-6.369894028E0,1.685286760E-1
6.525588360E0,-2.486793756E0,-5.991363525E0,2.329703569E-1
6.530593242E0,-2.330050945E0,-5.563811302E0,3.421704769E-1
6.535598125E0,-2.120148897E0,-5.138910294E0,3.636614680E-1
6.540603008E0,-1.864655256E0,-4.614032745E0,3.978980780E-1
6.545607891E0,-1.523772955E0,-4.077865601E0,5.118827820E-1
6.550643291E0,-1.010592937E0,-3.449378014E0,6.952231526E-1
6.555648174E0,-6.009345055E-1,-2.851099968E0,8.964456320E-1
6.560653057E0,-1.693646908E-1,-2.311952591E0,1.009053946E0
6.565657940E0,1.992206573E-1,-1.868015289E0,1.241046309E0
6.570662823E0,4.312250614E-1,-1.493364334E0,1.420237899E0
6.575698223E0,5.896315575E-1,-1.203638077E0,1.521561384E0
6.580703106E0,6.459426880E-1,-9.918727875E-1,1.551273584E0
6.585707989E0,5.768716335E-1,-7.756032944E-1,1.548461437E0
6.590712871E0,3.939294815E-1,-6.900396347E-1,1.473530531E0
6.595748272E0,1.584408283E-1,-6.716527939E-1,1.307658672E0
6.600753155E0,-1.398942471E-1,-6.379489899E-1,1.096017122E0
6.605758037E0,-6.114232540E-1,-7.609682083E-1,9.118107557E-1
6.610762920E0,-1.138427496E0,-8.871440887E-1,7.503143549E-1
6.615767803E0,-1.376044273E0,-9.277677536E-1,6.120134592E-1
6.620772686E0,-1.492403030E0,-7.573385239E-1,5.688467026E-1
6.625777569E0,-1.455577374E0,-5.769519806E-1,5.670251846E-1
6.630812969E0,-1.274066925E0,-2.731056213E-1,6.459591985E-1
6.635817852E0,-1.030887604E0,5.129528046E-2,6.199060082E-1
6.640822735E0,-6.356785297E-1,3.987178802E-1,6.293146610E-1
6.645827617E0,-3.280067444E-2,8.804521561E-1,9.073612690E-1
6.650832500E0,3.277688026E-1,1.654162407E0,1.080474854E0
6.655867901E0,5.587701797E-1,2.212982178E0,1.181953669E0
6.660872783E0,9.006576538E-1,2.705896378E0,1.529184937E0
6.665877666E0,1.235910177E0,3.201257706E0,1.979335070E0
6.670882549E0,1.439915895E0,3.693319321E0,2.293683052E0
6.675887432E0,1.569736719E0,4.180047035E0,2.468942165E0
6.680922832E0,1.719426870E0,4.706116676E0,2.610541344E0
6.685927715E0,1.792614698E0,5.350905418E0,2.548892021E0
6.690932598E0,2.038873434E0,5.814633369E0,2.287924767E0
6.695937481E0,2.502495050E0,6.086976051E0,1.941910982E0
6.700942364E0,2.750200272E0,6.214688301E0,1.549480915E0
6.705977764E0,2.713684320E0,6.456082344E0,1.029750109E0
6.710982647E0,2.451781988E0,6.717594147E0,5.625947118E-1
6.715987530E0,2.027366400E0,7.050685883E0,2.558627129E-1
6.720992412E0,1.569670916E0,7.597621918E0,3.091361523E-1
6.725997295E0,1.324809074E0,8.225525856E0,5.943748951E-1
6.731002178E0,1.135065317E0,8.949711800E0,1.003576875E0
6.736037578E0,1.050899506E0,9.770259857E0,1.358793855E0
6.741042461E0,1.119998455E0,1.053830528E1,1.760888815E0
6.746047344E0,1.177063942E0,1.117953873E1,2.147000313E0
6.751052227E0,1.321445465E0,1.165198708E1,2.735234737E0
6.756057110E0,1.349409103E0,1.186306953E1,3.454374790E0
6.761092510E0,1.287511349E0,1.167028904E1,4.082364082E0
6.766097393E0,1.435171127E0,1.090906906E1,4.462020397E0
6.771102276E0,1.379688263E0,9.799330711E0,4.636863232E0
6.776107158E0,1.109658241E0,8.649069786E0,4.718237877E0
6.781112041E0,5.406370163E-1,7.389279366E0,4.967206001E0
6.786116924E0,-7.996034622E-2,6.330498695E0,5.115456581E0
6.791152325E0,-6.389703751E-1,5.569221497E0,5.039433479E0
6.796157207E0,-1.073644161E0,5.093767166E0,4.800899506E0
6.801162090E0,-1.545336008E0,4.741350174E0,4.368633270E0
6.806166973E0,-2.218106985E0,4.467152596E0,4.046602249E0
6.811171856E0,-2.760339260E0,4.013257027E0,3.971177340E0
6.816207256E0,-2.850464821E0,3.560762405E0,3.924933195E0
6.821212139E0,-2.625211716E0,3.176068306E0,3.705764294E0
6.826217022E0,-2.520703316E0,2.915516853E0,3.339044094E0
6.831221905E0,-2.526856661E0,2.755171776E0,2.851173639E0
6.836226787E0,-2.471018553E0,2.612471581E0,2.329099655E0
6.841262188E0,-2.294892311E0,2.493263245E0,1.831211329E0
6.846267071E0,-1.959774494E0,2.417148590E0,1.349418163E0
6.851271953E0,-1.521071434E0,2.299598694E0,9.190992117E-1
6.856276836E0,-1.250563622E0,2.125485420E0,5.119994879E-1
6.861281719E0,-9.848732948E-1,1.851243973E0,3.022912741E-1
6.866286602E0,-8.061141968E-1,1.511216164E0,2.527142763E-1
6.871322002E0,-7.344851494E-1,1.117219925E0,3.299036026E-1
6.876326885E0,-7.105245590E-1,7.650194168E-1,3.907636404E-1
6.881331768E0,-6.581063271E-1,3.638496399E-1,4.839371443E-1
6.886336651E0,-7.092344761E-1,-2.026748657E-2,6.082383394E-1
6.891341533E0,-7.950844765E-1,-3.642816544E-1,6.620135307E-1
6.896376934E0,-9.925096035E-1,-7.779884338E-1,8.176655769E-1
6.901381817E0,-1.142588139E0,-1.210346222E0,1.004978180E0
6.906386700E0,-1.192080975E0,-1.591573715E0,1.060577154E0
6.911391582E0,-1.287374258E0,-1.995594025E0,1.164387584E0
6.916396465E0,-1.355728388E0,-2.386263847E0,1.304801345E0
6.921431866E0,-1.393785238E0,-2.732300758E0,1.381806135E0
6.926436748E0,-1.388784647E0,-3.053764343E0,1.510967851E0
6.931441631E0,-1.430523872E0,-3.327835083E0,1.594562173E0
6.936446514E0,-1.486711025E0,-3.635751724E0,1.601994872E0
6.941451397E0,-1.543025494E0,-3.896066666E0,1.650994778E0
6.946486797E0,-1.586364746E0,-4.141067505E0,1.667450786E0
6.951491680E0,-1.583316565E0,-4.425587654E0,1.667900085E0
6.956496563E0,-1.562440395E0,-4.706565857E0,1.598846674E0
6.961501446E0,-1.600198269E0,-4.977980614E0,1.579291821E0
6.966506328E0,-1.631767750E0,-5.299696922E0,1.525714397E0
6.971511211E0,-1.666332245E0,-5.616760254E0,1.397888780E0
6.976546612E0,-1.706051350E0,-5.925710678E0,1.309493423E0
6.981551494E0,-1.792985201E0,-6.226417542E0,1.227425933E0
6.986556377E0,-1.840719700E0,-6.516741753E0,1.115108013E0
6.991561260E0,-1.882932425E0,-6.721350670E0,9.914530516E-1
6.996566143E0,-1.972165823E0,-6.913320541E0,8.731456995E-1
7.001601543E0,-2.068840504E0,-7.148938179E0,8.613638878E-1
7.006606426E0,-2.164737225E0,-7.294138908E0,8.215154409E-1
7.011611309E0,-2.245688438E0,-7.408749580E0,7.211465240E-1
7.016616192E0,-2.306035995E0,-7.389894485E0,7.182762027E-1
7.021621075E0,-2.415631533E0,-7.349866867E0,6.349704862E-1
7.026656475E0,-2.560582638E0,-7.344772339E0,5.413596034E-1
7.031661358E0,-2.656510830E0,-7.167442322E0,5.410481691E-1
7.036666241E0,-2.761457443E0,-7.073731422E0,4.977864623E-1
7.041671123E0,-2.940442801E0,-6.973604202E0,4.768012166E-1
7.046676006E0,-3.055145741E0,-6.738965988E0,4.903087616E-1
7.051680889E0,-3.102609158E0,-6.355374336E0,4.086537957E-1
7.056716289E0,-2.906347036E0,-5.818048477E0,2.202332020E-1
7.061721172E0,-2.456169605E0,-5.273395538E0,2.954185009E-3
7.066726055E0,-1.948502779E0,-4.781729698E0,-2.627375126E-1
7.071730938E0,-1.470290661E0,-4.334055901E0,-5.342945457E-1
7.076735821E0,-1.098879337E0,-3.931037903E0,-8.567460775E-1
7.081771221E0,-8.141918182E-1,-3.634008408E0,-1.140089750E0
7.086776104E0,-7.486348152E-1,-3.426701546E0,-1.452950716E0
7.091780987E0,-8.456737995E-1,-3.246975899E0,-1.710131407E0
7.096785869E0,-1.082541227E0,-3.189207077E0,-1.938561916E0
7.101790752E0,-1.463163853E0,-3.161026001E0,-2.071713686E0
7.106826153E0,-1.833896875E0,-3.047296524E0,-2.208230495E0
7.111831035E0,-2.124678373E0,-2.892141342E0,-2.347866535E0
7.116835918E0,-2.331615448E0,-2.805253983E0,-2.396090746E0
7.121840801E0,-2.443318605E0,-2.627277374E0,-2.450472116E0
7.126845684E0,-2.497016191E0,-2.421614647E0,-2.387155533E0
7.131850567E0,-2.464064837E0,-2.038825989E0,-2.300080538E0
7.136885967E0,-2.424902678E0,-1.530407906E0,-2.203089237E0
7.141890850E0,-2.380492926E0,-8.978033066E-1,-2.121437311E0
7.146895733E0,-2.318153620E0,-1.815624237E-1,-2.080979109E0
7.151900616E0,-2.149421930E0,5.632123947E-1,-2.026873350E0
7.156905498E0,-1.947412729E0,1.402294159E0,-1.924849510E0
7.161940899E0,-1.744419336E0,2.352303505E0,-1.778984308E0
7.166945782E0,-1.454066277E0,3.368781090E0,-1.702692151E0
7.171950664E0,-1.115621090E0,4.452692032E0,-1.629304528E0
7.176955547E0,-7.871608734E-1,5.480610847E0,-1.630852938E0
7.181960430E0,-4.466900826E-1,6.378273010E0,-1.705217481E0
7.186995830E0,-9.679794312E-5,7.262701988E0,-1.818274140E0
7.192000713E0,2.684750557E-1,7.890384674E0,-2.056259155E0
7.197005596E0,3.137946129E-1,8.031589508E0,-2.493704796E0
7.202010479E0,3.605551720E-1,7.904123306E0,-2.944389343E0
7.207015362E0,5.931854248E-4,7.225786209E0,-3.381342411E0
7.212020244E0,-5.811090469E-1,5.995203972E0,-3.759276867E0
7.217055645E0,-1.047203064E0,4.736652374E0,-4.123407841E0
7.222060528E0,-9.503860474E-1,3.687698364E0,-4.317725182E0
7.227065410E0,-4.620542526E-1,3.097035408E0,-4.271002769E0
7.232070293E0,3.452491760E-2,2.955565453E0,-4.223206043E0
7.237075176E0,4.913940430E-1,3.137089729E0,-3.938222885E0
7.242110576E0,1.094153404E0,3.655354500E0,-3.424359798E0
7.247115459E0,1.597261429E0,4.357723236E0,-2.917418957E0
7.252120342E0,1.986730576E0,4.997813225E0,-2.266108751E0
7.257125225E0,2.502162933E0,5.421627045E0,-1.691110373E0
7.262130108E0,3.134495735E0,5.740585327E0,-1.213886380E0
7.267165508E0,3.665361881E0,5.981001854E0,-8.858811855E-1
7.272170391E0,4.061815262E0,6.141493797E0,-5.632667542E-1
7.277175274E0,4.582536221E0,6.249500275E0,-3.242534399E-1
7.282180157E0,4.931385517E0,6.278535843E0,-1.883748770E-1
7.287185039E0,5.009547710E0,6.130522728E0,-1.345610619E-2
7.292189922E0,4.895752907E0,5.843119621E0,1.349231005E-1
7.297225323E0,4.807434082E0,5.322289467E0,2.390155792E-1
7.302230205E0,4.951119423E0,4.750092506E0,2.498593330E-1
7.307235088E0,4.871741772E0,3.987445831E0,2.493025064E-1
7.312239971E0,4.734527111E0,3.219752312E0,3.173772097E-1
7.317244854E0,4.881545067E0,2.531841278E0,2.802287340E-1
7.322280254E0,4.869850636E0,1.854906082E0,2.654064894E-1
7.327285137E0,4.872931957E0,1.305993080E0,2.360264063E-1
7.332290020E0,5.057771206E0,8.498840332E-1,1.763600111E-1
7.337294903E0,5.118337154E0,3.822374344E-1,2.269951105E-1
7.342299785E0,5.134447575E0,3.833580017E-2,2.629812956E-1
7.347335186E0,5.342173576E0,-1.674242020E-1,3.814650774E-1
7.352340069E0,5.530151367E0,-3.959207535E-1,4.883439541E-1
7.357344951E0,6.058943748E0,-4.292860031E-1,6.578541994E-1
7.362349834E0,6.262997627E0,-3.763532639E-1,9.081090689E-1
7.367354717E0,6.390995026E0,-2.951955795E-1,1.065353513E0
7.372359600E0,6.415221214E0,-1.418628693E-1,1.120781302E0
7.377395000E0,6.972978592E0,8.751296997E-2,1.025113106E0
7.382399883E0,7.157631874E0,2.340908051E-1,9.816982746E-1
7.387404766E0,6.693647385E0,2.167158127E-1,9.770598412E-1
7.392409649E0,5.958051682E0,1.210784912E-2,9.328044653E-1
7.397414532E0,5.419602394E0,-2.570590973E-1,6.368296146E-1
7.402449932E0,5.131710052E0,-6.709470749E-1,3.741759062E-1
7.407454815E0,4.888121605E0,-1.314489365E0,1.924942732E-1
7.412459698E0,4.532935143E0,-1.907113075E0,3.970122337E-2
7.417464580E0,3.907331705E0,-2.407176971E0,3.476858139E-3
7.422469463E0,3.323107481E0,-2.808715820E0,-9.765207767E-2
7.427504864E0,2.766341686E0,-3.192988396E0,-1.687195301E-1
7.432509746E0,2.339744091E0,-3.522670746E0,-1.757760048E-1
7.437514629E0,2.036624670E0,-3.775056839E0,-2.583230734E-1
7.442519512E0,1.759693623E0,-4.000455856E0,-2.176479697E-1
7.447524395E0,1.410444260E0,-4.247864723E0,-2.162326574E-1
7.452529278E0,1.059890270E0,-4.524351120E0,-2.869031429E-1
7.457564678E0,7.322397232E-1,-4.848994255E0,-3.622287512E-1
7.462569561E0,3.755753040E-1,-5.187232018E0,-4.375535548E-1
7.467574444E0,-6.983613968E-2,-5.439846992E0,-5.203409791E-1
7.472579326E0,-4.674119949E-1,-5.715845108E0,-5.684045553E-1
7.477584209E0,-7.765064240E-1,-5.892127991E0,-5.925012827E-1
7.482619610E0,-1.066661596E0,-6.065656662E0,-5.812656879E-1
7.487624492E0,-1.220131636E0,-6.178176880E0,-6.110718250E-1
7.492629375E0,-1.384860516E0,-6.296969414E0,-6.406825781E-1
7.497634258E0,-1.553035498E0,-6.396030426E0,-6.810523272E-1
7.502639141E0,-1.740595341E0,-6.569016457E0,-6.925514340E-1
7.507674541E0,-1.979312658E0,-6.712085724E0,-7.581778169E-1
7.512679424E0,-2.135728836E0,-6.855581284E0,-8.263623118E-1
7.517684307E0,-2.301574945E0,-6.996150017E0,-9.250466824E-1
7.522689190E0,-2.473929882E0,-7.142455101E0,-1.008715034E0
7.527694073E0,-2.634690046E0,-7.255168915E0,-1.121305346E0
7.532729473E0,-2.800467491E0,-7.402611732E0,-1.248647690E0
7.537734356E0,-2.971419334E0,-7.539443970E0,-1.423777223E0
7.542739239E0,-3.243563414E0,-7.630926132E0,-1.609784603E0
7.547744121E0,-3.477963924E0,-7.680429459E0,-1.885998011E0
7.552749004E0,-3.720128536E0,-7.716330528E0,-2.149197578E0
7.557753887E0,-3.857760906E0,-7.734654427E0,-2.364535332E0
7.562789287E0,-3.916830063E0,-7.705353737E0,-2.533376217E0
7.567794170E0,-3.961175203E0,-7.641304970E0,-2.604520321E0
7.572799053E0,-3.859573364E0,-7.475542068E0,-2.683784962E0
7.577803936E0,-3.604399920E0,-7.206824303E0,-2.740394115E0
7.582808819E0,-3.310698271E0,-6.972829819E0,-2.729205370E0
7.587844219E0,-3.094427109E0,-6.722033501E0,-2.788589954E0
7.592849102E0,-2.786335230E0,-6.365851402E0,-2.825234413E0
7.597853985E0,-2.498924732E0,-6.057394028E0,-2.793070316E0
7.602858867E0,-2.286310196E0,-5.685317993E0,-2.711411476E0
7.607863750E0,-2.047077417E0,-5.259240150E0,-2.540891647E0
7.612899151E0,-1.750753880E0,-4.739577293E0,-2.434769154E0
7.617904033E0,-1.303526163E0,-4.113303185E0,-2.197364807E0
7.622908916E0,-8.609566689E-1,-3.440423965E0,-1.899435520E0
7.627913799E0,-3.895764351E-1,-2.662463188E0,-1.854174137E0
7.632918682E0,2.860665321E-1,-1.644487381E0,-1.607844353E0
7.637923565E0,1.157755136E0,-5.245504379E-1,-1.102910519E0
7.642958965E0,1.862145662E0,8.511219025E-1,-4.849331379E-1
7.647963848E0,2.640826225E0,2.240499496E0,1.380062103E-2
7.652968731E0,3.525877714E0,3.673142433E0,5.524094105E-1
7.657973614E0,4.417048454E0,5.197634697E0,1.167967081E0
7.662978496E0,5.490806580E0,6.567160606E0,1.605016708E0
7.667983379E0,6.611487389E0,7.804074287E0,1.662441254E0
7.673018780E0,7.494839668E0,8.711911201E0,1.618764639E0
7.678023662E0,7.914141655E0,9.425847054E0,1.409617424E0
7.683028545E0,8.383619308E0,9.889806747E0,1.188153982E0
7.688033428E0,8.237303734E0,9.938769341E0,6.087710857E-1
7.693068828E0,7.251848221E0,9.698050499E0,-2.246513367E-1
7.698073711E0,6.053499222E0,9.279350281E0,-1.291576147E0
7.703078594E0,4.701150417E0,8.488266945E0,-2.394381285E0
7.708083477E0,4.115413666E0,7.759496689E0,-3.094942570E0
7.713088360E0,4.630710602E0,7.311011314E0,-3.517943144E0
7.718093242E0,5.243324280E0,6.927768707E0,-3.739211082E0
7.723128643E0,5.603482246E0,6.660317421E0,-3.717300892E0
7.728133526E0,5.582033634E0,6.332293510E0,-3.535461664E0
7.733138408E0,5.464309692E0,5.904128075E0,-3.263882875E0
7.738143291E0,5.366433620E0,5.418736458E0,-3.094165325E0
7.743148174E0,5.191766739E0,4.792216301E0,-3.003122330E0
7.748183575E0,5.132034302E0,4.205061913E0,-2.975257874E0
7.753188457E0,5.028750420E0,3.612788200E0,-3.103266954E0
7.758193340E0,4.707232952E0,2.962691307E0,-3.326501369E0
7.763198223E0,4.253906727E0,2.258615494E0,-3.507976770E0
7.768203106E0,3.825885057E0,1.438759804E0,-3.724635601E0
7.773238506E0,3.247699499E0,4.209547043E-1,-4.005225182E0
7.778243389E0,2.638660431E0,-4.482831955E-1,-4.339012146E0
7.783248272E0,2.105078459E0,-1.111218452E0,-4.421850204E0
7.788253155E0,1.722942114E0,-1.482748032E0,-4.214926243E0
7.793258037E0,1.519223928E0,-1.480457306E0,-3.826997995E0
7.798262920E0,1.395756245E0,-1.401333809E0,-3.399531841E0
7.803298321E0,1.294109821E0,-1.426116943E0,-2.902443886E0
7.808303203E0,1.125117064E0,-1.428040504E0,-2.429106474E0
7.813308086E0,1.003380775E0,-1.473168373E0,-1.964825869E0
7.818312969E0,6.304957867E-1,-1.591692924E0,-1.713182211E0
7.823317852E0,8.518505096E-2,-1.860097885E0,-1.390860796E0
7.828353252E0,-3.419218063E-1,-2.122730255E0,-7.176156044E-1
7.833358135E0,-5.852787495E-1,-2.204032898E0,9.409785271E-2
7.838363018E0,-7.443563938E-1,-2.170198441E0,7.282823324E-1
7.843367901E0,-9.354636669E-1,-2.105354309E0,1.391264558E0
7.848372783E0,-1.269874334E0,-1.839912415E0,1.889335752E0
7.853408184E0,-1.334416628E0,-1.376346588E0,2.638692617E0
7.858413067E0,-1.066831112E0,-8.455314636E-1,3.836008072E0
7.863417950E0,-1.265314817E0,-3.005323410E-1,4.868789196E0
7.868422832E0,-1.054993153E0,5.933170319E-1,8.142678261E0
7.873427715E0,-6.791512966E-1,1.585855484E0,1.307802868E1
7.878432598E0,-8.325030804E-1,2.317395210E0,1.505012035E1
7.883467998E0,-9.409797192E-1,3.145349503E0,1.335227299E1
7.888472881E0,-7.067704201E-1,4.103862762E0,9.971719742E0
7.893477764E0,-1.801717281E-1,4.900143623E0,6.851577759E0
7.898482647E0,5.788159370E-1,5.371572495E0,4.814035416E0
7.903487530E0,1.428092480E0,5.599914551E0,3.009378433E0
7.908522930E0,2.299260616E0,5.880362511E0,1.502799630E0
7.913527813E0,3.313096285E0,6.186727524E0,6.649503112E-1
7.918532696E0,3.845217705E0,6.123026848E0,1.491879225E-1
7.923537578E0,3.784978628E0,5.836930275E0,-2.385880649E-1
7.928542461E0,3.371372223E0,5.464871407E0,-2.884313464E-1
7.933577862E0,2.861777306E0,4.909019470E0,-1.418616027E-1
7.938582744E0,2.556113482E0,4.455699921E0,4.008560777E-1
7.943587627E0,2.332686901E0,3.985343933E0,1.093863606E0
7.948592510E0,2.244283438E0,3.537679672E0,1.753691077E0
7.953597393E0,2.212656498E0,3.482231140E0,2.533956766E0
7.958602276E0,1.974087000E0,3.690770149E0,3.200243235E0
7.963607158E0,1.744300842E0,3.589758873E0,3.661578178E0
7.968642559E0,1.883407831E0,3.516253471E0,3.934315205E0
7.973647442E0,1.739655972E0,3.466937065E0,4.065835953E0
7.978652325E0,1.948777199E0,3.432081223E0,3.508136034E0
7.983657207E0,2.425949097E0,3.490405083E0,2.599478483E0
7.988692608E0,2.853665590E0,3.623567581E0,1.648254752E0
7.993697491E0,2.784797907E0,3.729502678E0,1.067589045E0
7.998702373E0,2.819246292E0,4.023356438E0,3.925427794E-1
8.003707256E0,2.887527704E0,4.486920357E0,-2.118735909E-1
8.008712139E0,3.036121845E0,4.849834442E0,-7.558276653E-1
8.013747539E0,3.106884956E0,5.302363396E0,-1.252887011E0
8.018752422E0,3.466415644E0,5.625404358E0,-1.543554306E0
8.023757305E0,3.481709957E0,5.560502052E0,-1.641098976E0
8.028762188E0,3.313692808E0,5.360359192E0,-1.788290858E0
8.033767071E0,3.041524172E0,5.069488525E0,-1.903448224E0
8.038771953E0,2.734546185E0,4.635568619E0,-1.827747464E0
8.043807354E0,2.471730471E0,4.185668945E0,-1.695899248E0
8.048812237E0,2.277105808E0,3.764104843E0,-1.478415847E0
8.053817119E0,2.118712664E0,3.338599205E0,-1.096372128E0
8.058822002E0,2.057397604E0,3.049145699E0,-8.580930233E-1
8.063826885E0,1.956729889E0,2.718688965E0,-7.553483248E-1
8.068862285E0,1.867951870E0,2.337787628E0,-6.917029619E-1
8.073867168E0,1.961746216E0,1.911191940E0,-6.663725972E-1
8.078872051E0,2.173716307E0,1.338237762E0,-5.699178576E-1
8.083876934E0,2.371428251E0,6.879968643E-1,-5.244840384E-1
8.088881817E0,2.326843262E0,-4.818248749E-2,-6.492134929E-1
8.093917217E0,2.173899651E0,-9.372978210E-1,-7.624368072E-1
8.098922100E0,2.032665730E0,-1.815286636E0,-7.068853378E-1
8.103926983E0,1.808251381E0,-2.786048889E0,-8.822383881E-1
8.108931866E0,1.513349771E0,-3.729758263E0,-1.132007480E0
8.113936748E0,1.394877911E0,-4.715648651E0,-1.450149775E0
8.118941631E0,1.275066614E0,-5.657880783E0,-1.860464692E0
8.123977032E0,8.910391331E-1,-6.688230515E0,-2.035691738E0
8.128981914E0,4.409158230E-1,-7.591259003E0,-2.455338001E0
8.133986797E0,6.081986427E-2,-8.320296288E0,-2.928423405E0
8.138991680E0,-1.882133484E-1,-8.970981598E0,-3.325639248E0
8.143996563E0,-4.491436481E-1,-9.720205307E0,-4.205703735E0
8.149031963E0,-6.540153027E-1,-1.039059162E1,-5.587434292E0
8.154036846E0,-9.074625969E-1,-1.106075478E1,-7.381392479E0
8.159011211E0,-1.383048058E0,-1.192138195E1,-9.699819565E0
8.164046612E0,-2.162525654E0,-1.268815041E1,-1.105288315E1
8.169051494E0,-2.955608368E0,-1.316947556E1,-1.105854797E1
8.174086895E0,-3.454495907E0,-1.319449139E1,-9.511421204E0
8.179091778E0,-3.501037121E0,-1.256227589E1,-6.653098106E0
8.184096660E0,-3.521383524E0,-1.178629971E1,-3.747489452E0
8.189101543E0,-3.494627714E0,-1.112316132E1,-1.475222707E0
8.194106426E0,-3.425043583E0,-1.059827232E1,2.107583880E-1
8.199111309E0,-3.331156731E0,-1.026676083E1,1.263553739E0
8.204146709E0,-3.436220646E0,-1.011777306E1,1.804492831E0
8.209151592E0,-3.307756424E0,-9.989864349E0,2.088640690E0
8.214156475E0,-3.242345095E0,-9.961965561E0,2.197777033E0
8.219161358E0,-3.165522099E0,-9.891711235E0,2.254841805E0
8.224166241E0,-3.200001240E0,-9.843786240E0,2.173271656E0
8.229201641E0,-3.212103605E0,-9.816805840E0,2.046180725E0
8.234206524E0,-3.266168118E0,-9.724643707E0,1.889217734E0
8.239211407E0,-3.399598122E0,-9.447646141E0,1.710775018E0
8.244216289E0,-3.435205698E0,-9.086031914E0,1.588220239E0
8.249221172E0,-3.282774925E0,-8.828564644E0,1.529601693E0
8.254256573E0,-3.066920280E0,-8.667869568E0,1.415421128E0
8.259261455E0,-2.904396534E0,-8.593247414E0,1.303124785E0
8.264266338E0,-2.809645176E0,-8.367781639E0,1.327785730E0
8.269271221E0,-2.708573341E0,-8.095621109E0,1.398186088E0
8.274276104E0,-2.515169144E0,-7.626148224E0,1.601367235E0
8.279280987E0,-2.271945000E0,-6.884073257E0,1.706221581E0
8.284316387E0,-2.089410543E0,-5.848001480E0,1.748181701E0
8.289321270E0,-2.059583664E0,-4.178256035E0,1.759130359E0
8.294326153E0,-2.236609697E0,-1.655561447E0,1.810557365E0
8.299331035E0,-2.675852776E0,1.882805824E0,1.768562078E0
8.304366436E0,-2.913540602E0,6.408232689E0,1.935350537E0
8.309371319E0,-2.392816544E0,1.133604717E1,2.645647526E0
8.314376201E0,-2.017569542E-1,1.633735275E1,3.974481106E0
8.319381084E0,6.746163368E0,2.170986176E1,5.072824478E0
8.324385967E0,1.716461754E1,2.676325035E1,5.760071754E0
8.329390850E0,2.879166603E1,3.036288071E1,5.727807045E0
8.334426250E0,3.291381454E1,3.086399651E1,4.227540493E0
8.339431133E0,2.640908432E1,2.896257019E1,2.054184198E0
8.344436016E0,1.674973869E1,2.472667313E1,3.123254776E-1
8.349440899E0,1.034522724E1,1.943096924E1,-1.366493702E-1
8.354445782E0,7.969335556E0,1.467595291E1,3.704798222E-1
8.359481182E0,6.782623291E0,1.098675537E1,1.295406580E0
8.364486065E0,5.561149120E0,8.176495552E0,1.851305008E0
8.369490948E0,4.281527996E0,6.244790077E0,2.316016436E0
8.374495830E0,3.163827896E0,5.017036438E0,2.565770864E0
8.379500713E0,2.404100895E0,4.381115913E0,2.845169783E0
8.384505596E0,2.038821936E0,3.717049599E0,3.315956831E0
8.389540996E0,1.967149496E0,3.049348831E0,3.826946497E0
8.394545879E0,1.709026098E0,2.930036545E0,4.469758034E0
8.399550762E0,1.400490999E0,2.821340561E0,5.108491898E0
8.404555645E0,1.282590628E0,2.543848038E0,5.835227013E0
8.409560528E0,1.424940348E0,2.353763580E0,6.474864960E0
8.414595928E0,1.926555157E0,2.098776817E0,6.994423866E0
8.419600811E0,2.323094368E0,1.678900719E0,7.305353165E0
8.424605694E0,2.380811691E0,1.066502571E0,7.397482872E0
8.429610576E0,2.085521698E0,3.166961670E-1,7.037084579E0
8.434615459E0,1.654846430E0,-4.903402328E-1,6.374169827E0
8.439650860E0,1.201898336E0,-1.382435799E0,5.661244392E0
8.444655742E0,6.465795040E-1,-2.290259361E0,4.894633293E0
8.449660625E0,1.695799828E-2,-3.174929619E0,4.242722511E0
8.454665508E0,-5.450410843E-1,-4.045091629E0,3.645090580E0
8.459670391E0,-1.013649464E0,-4.857904434E0,3.205373764E0
8.464675274E0,-1.307889938E0,-5.580162048E0,2.812046051E0
8.469710674E0,-1.599884748E0,-6.234992027E0,2.529873133E0
8.474715557E0,-1.824057579E0,-6.855918884E0,2.229370594E0
8.479720440E0,-1.980119705E0,-7.394154549E0,2.005747795E0
8.484725323E0,-2.184050083E0,-7.883275032E0,1.833931804E0
8.489730205E0,-2.266849756E0,-8.206243515E0,1.570349574E0
8.494765606E0,-2.401700020E0,-8.534351349E0,1.376502275E0
8.499770489E0,-2.537598372E0,-8.873265266E0,1.360239625E0
8.504775371E0,-2.678184032E0,-9.127300262E0,1.338073850E0
8.509780254E0,-2.793787003E0,-9.422008514E0,1.317066431E0
8.514785137E0,-2.859644413E0,-9.607709885E0,1.331839442E0
8.519820537E0,-2.933268070E0,-9.775362968E0,1.363108635E0
8.524825420E0,-2.904053450E0,-9.849297523E0,1.355348349E0
8.529830303E0,-2.844764709E0,-9.863212585E0,1.381169677E0
8.534835186E0,-2.822346449E0,-9.886435509E0,1.371639371E0
8.539840069E0,-2.752804756E0,-9.866402626E0,1.411649108E0
8.544844951E0,-2.699414253E0,-9.843783379E0,1.379503608E0
8.549880352E0,-2.672581673E0,-9.821033478E0,1.380725861E0
8.554885235E0,-2.630732536E0,-9.817009926E0,1.337199926E0
8.559890117E0,-2.633235455E0,-9.787625313E0,1.278566122E0
8.564895000E0,-2.583230495E0,-9.765126228E0,1.214676380E0
8.569899883E0,-2.582156181E0,-9.787784576E0,1.148156404E0
8.574935283E0,-2.532824516E0,-9.770718575E0,1.109883070E0
8.579940166E0,-2.560121298E0,-9.771145821E0,1.088913560E0
8.584945049E0,-2.522418737E0,-9.808318138E0,1.033423662E0
8.589949932E0,-2.511696577E0,-9.823616028E0,1.037995100E0
8.594954815E0,-2.526560068E0,-9.794342995E0,1.014421225E0
8.599990215E0,-2.528759241E0,-9.764802933E0,9.589977860E-1
8.604995098E0,-2.608602047E0,-9.732362747E0,8.474804759E-1
8.609999981E0,-2.788540840E0,-9.588295937E0,8.125348091E-1
8.615004864E0,-3.003276110E0,-9.323001862E0,7.263199687E-1
8.620009746E0,-3.065870523E0,-9.166008949E0,7.013318539E-1
8.625045147E0,-3.084930658E0,-9.068282127E0,6.824947000E-1
8.630050030E0,-3.128192425E0,-8.901668549E0,6.492940187E-1
8.635054912E0,-3.219551325E0,-8.709357262E0,6.292182207E-1
8.640059795E0,-3.356697083E0,-8.487804413E0,7.028992772E-1
8.645064678E0,-3.751654625E0,-7.657157898E0,8.207001686E-1
8.650069561E0,-5.932744980E0,-3.881426811E0,1.009813309E0
8.655104961E0,-8.138631821E0,7.023220062E-1,2.335702658E0
8.660109844E0,-9.421396255E0,5.081404686E0,4.513686180E0
8.665114727E0,-9.153344154E0,9.170018196E0,6.451569080E0
8.670119610E0,-7.415038109E0,1.271802330E1,7.960260868E0
8.675124492E0,-4.792831421E0,1.490999222E1,8.087017059E0
8.680159893E0,-1.895910740E0,1.589049244E1,6.443537235E0
8.685164776E0,1.367015362E0,1.624678802E1,3.858244181E0
8.690169658E0,5.240121841E0,1.627348328E1,9.267828465E-1
8.695174541E0,1.265044689E1,1.698033333E1,-9.011751413E-1
8.700179424E0,2.361864471E1,1.845030022E1,-3.401154995E0
8.705184307E0,3.349977875E1,2.004496384E1,-9.683186531E0
8.710219707E0,3.614821625E1,2.057070923E1,-1.542580032E1
8.715224590E0,2.664430046E1,1.797088432E1,-1.708701515E1
8.720229473E0,1.056659698E1,1.377124119E1,-1.607683372E1
8.725234356E0,2.440194368E0,1.010868454E1,-1.500078964E1
8.730239239E0,2.891748190E0,7.038292885E0,-1.271021366E1
8.735274639E0,5.238810062E0,5.345252037E0,-1.075634098E1
8.740279522E0,6.358509064E0,4.511114120E0,-9.158991814E0
8.745284405E0,6.694779396E0,3.755059242E0,-7.766356468E0
8.750289287E0,6.941778183E0,3.012064934E0,-6.588676929E0
8.755294170E0,7.055013657E0,2.148291588E0,-5.707617283E0
8.760329571E0,6.905907631E0,1.146614075E0,-4.624094963E0
8.765334453E0,6.351287842E0,2.880477905E-2,-4.075739861E0
8.770339336E0,5.440765858E0,-1.773953438E0,-3.866635323E0
8.775344219E0,5.300610065E0,-3.827557564E0,-5.174498081E0
8.780349102E0,6.239893913E0,-5.500549316E0,-8.198934555E0
8.785353985E0,6.373299599E0,-6.754870415E0,-1.100527000E1
8.790389385E0,3.994298935E0,-7.263172150E0,-1.131639576E1
8.795394268E0,9.465496540E-1,-7.005752563E0,-9.436265945E0
8.800399151E0,-1.130565405E-1,-6.657303810E0,-6.977557182E0
8.805434551E0,-1.255959272E-1,-6.332346916E0,-5.002315998E0
8.810439434E0,-2.341061831E-1,-6.242242813E0,-3.750133038E0
8.815444317E0,-5.720198154E-1,-6.326443672E0,-2.892800331E0
8.820449200E0,-8.948634863E-1,-6.393688202E0,-2.208548546E0
8.825454082E0,-1.194994330E0,-6.474116325E0,-1.815999389E0
8.830458965E0,-1.418189883E0,-6.456639290E0,-1.401120424E0
8.835463848E0,-1.663438201E0,-6.415642738E0,-1.111747384E0
8.840499248E0,-1.931578755E0,-6.317719460E0,-9.307302237E-1
8.845504131E0,-2.202922106E0,-6.051877975E0,-8.157904148E-1
8.850509014E0,-2.528202295E0,-5.580007553E0,-5.151498318E-1
8.855513897E0,-3.070710182E0,-4.891592026E0,1.503089666E-1
8.860518780E0,-3.754546881E0,-3.897120476E0,8.430997133E-1
8.865523662E0,-4.187913895E0,-2.391113281E0,1.716163874E0
8.870559063E0,-4.354942799E0,-5.008049011E-1,3.086165905E0
8.875563946E0,-3.846643686E0,1.573399544E0,4.512441635E0
8.880568828E0,-2.728730440E0,3.774863243E0,6.003333569E0
8.885573711E0,-5.150256157E-1,6.220185280E0,7.211716652E0
8.890578594E0,3.515385151E0,8.829299927E0,7.977791786E0
8.895613994E0,7.974151611E0,1.125354862E1,8.298274040E0
8.900618877E0,1.101196861E1,1.302960205E1,7.254656792E0
8.905623760E0,1.223218727E1,1.412789822E1,5.682119370E0
8.910628643E0,1.130259323E1,1.442909336E1,4.310573101E0
8.915633526E0,8.420362473E0,1.388274479E1,2.412979126E0
8.920668926E0,5.773574829E0,1.283966255E1,8.753129244E-1
8.925673809E0,4.114841461E0,1.173262501E1,8.551371098E-2
8.930678692E0,3.085850000E0,1.046494484E1,2.577779293E-1
8.935683575E0,2.934228659E0,9.233201027E0,1.301750302E0
8.940688457E0,3.823593140E0,8.075573921E0,5.068380833E0
8.945693340E0,5.135455132E0,7.650721550E0,8.970707893E0
8.950728741E0,6.610703468E0,8.002549171E0,9.304391861E0
8.955733623E0,6.652831078E0,8.217616081E0,9.526016235E0
8.960738506E0,6.124373913E0,8.136373520E0,9.687315941E0
8.965743389E0,6.053766251E0,8.591757774E0,8.211825371E0
8.970748272E0,6.027653694E0,8.564636230E0,6.434398174E0
8.975783672E0,5.984357357E0,8.675015450E0,5.072417736E0
8.980788555E0,5.665487289E0,9.138240814E0,4.006190777E0
8.985793438E0,4.395069599E0,9.204659462E0,3.065026045E0
8.990798321E0,2.634256363E0,8.885542870E0,3.002860069E0
8.995803203E0,1.558011770E0,8.453689575E0,4.020290375E0
9.000838604E0,8.022463322E-1,7.678967476E0,4.382124424E0
9.005812969E0,7.542037964E-1,6.914527893E0,4.064518452E0
9.010848369E0,9.627559185E-1,6.291682243E0,3.563803911E0
9.015853252E0,1.212925196E0,5.808300972E0,3.200057983E0
9.020858135E0,1.464473009E0,5.260516167E0,2.606972218E0
9.025863018E0,1.646049738E0,4.555928230E0,1.741373897E0
9.030898418E0,1.991054773E0,3.815228462E0,7.484851480E-1
9.035903301E0,2.413385153E0,3.132715225E0,-2.462018132E-1
9.040908184E0,2.939617395E0,2.416008949E0,-1.175070405E0
9.045913067E0,3.266689301E0,1.669568062E0,-2.077148914E0
9.050917950E0,3.297129631E0,9.530897141E-1,-2.667809248E0
9.055953350E0,2.929422140E0,3.491287231E-1,-3.180853367E0
9.060958233E0,2.206479311E0,-5.899915695E-1,-3.352939844E0
9.065963116E0,1.712799311E0,-1.632194519E0,-3.608429670E0
9.070967998E0,1.376233578E0,-2.684524536E0,-3.808014870E0
9.075972881E0,1.257208824E0,-3.750075340E0,-3.905283451E0
9.081008282E0,1.217236757E0,-4.751015663E0,-4.110101223E0
9.086013164E0,1.182942629E0,-5.670264244E0,-4.410594940E0
9.091018047E0,1.115635395E0,-6.771847725E0,-5.220023155E0
9.096022930E0,1.380302429E0,-8.017816544E0,-7.364058971E0
9.101027813E0,1.436251402E0,-1.004702854E1,-1.234328747E1
9.106063213E0,1.160376549E0,-1.275295544E1,-1.951024246E1
9.111068096E0,7.322175503E-1,-1.514399338E1,-2.305494690E1
9.116072979E0,1.048444748E0,-1.623193741E1,-1.984637070E1
9.121077862E0,2.136859417E0,-1.566205311E1,-1.393723869E1
9.126082744E0,2.443102837E0,-1.453666592E1,-9.147166252E0
9.131087627E0,1.383394003E0,-1.343491268E1,-5.307942390E0
9.136123028E0,-3.211526871E-1,-1.231795025E1,-1.226848125E0
9.141127910E0,-1.708947897E0,-1.141286945E1,2.158917904E0
9.146132793E0,-2.260138750E0,-1.094040394E1,4.659182072E0
9.151137676E0,-2.452369452E0,-1.072575665E1,6.232652187E0
9.156142559E0,-2.530341625E0,-1.066137695E1,6.959115505E0
9.161177959E0,-2.572598219E0,-1.066958714E1,7.087415218E0
9.166182842E0,-2.383677244E0,-1.068953323E1,6.212936878E0
9.171187725E0,-1.970571041E0,-1.060179329E1,4.984933853E0
9.176192608E0,-2.042970419E0,-1.046650124E1,3.926890135E0
9.181197491E0,-2.251435041E0,-1.031227779E1,3.183614254E0
9.186232891E0,-2.401785851E0,-1.024762344E1,2.587950945E0
9.191237774E0,-2.524415493E0,-1.016583157E1,2.077734709E0
9.196242657E0,-2.619853973E0,-9.985441208E0,1.671832681E0
9.201247539E0,-2.676767826E0,-9.798406601E0,1.318303466E0
9.206252422E0,-2.732888937E0,-9.610491753E0,1.050300837E0
9.211257305E0,-2.750218153E0,-9.409658432E0,7.471281886E-1
9.216292705E0,-2.717305422E0,-9.205310822E0,6.732563972E-1
9.221297588E0,-2.701154947E0,-9.085925102E0,6.523196101E-1
9.226302471E0,-2.688740492E0,-8.997539520E0,6.991689205E-1
9.231307354E0,-2.665721655E0,-8.919777870E0,7.538915277E-1
9.236312237E0,-2.655877590E0,-8.812005997E0,8.382732272E-1
9.241347637E0,-2.599364281E0,-8.645543098E0,9.888077974E-1
9.246352520E0,-2.487996340E0,-8.370202065E0,1.164239287E0
9.251357403E0,-2.374580145E0,-8.039854050E0,1.483528256E0
9.256362285E0,-2.237821579E0,-7.548004150E0,1.872858047E0
9.261367168E0,-2.084027052E0,-6.873178482E0,2.223968029E0
9.266402569E0,-1.995616198E0,-6.109562874E0,2.664675951E0
9.271407451E0,-1.819480896E0,-5.320159912E0,3.066792011E0
9.276412334E0,-1.481261730E0,-4.486612320E0,3.427722216E0
9.281417217E0,-1.237490892E0,-3.675615311E0,3.590119123E0
9.286422100E0,-8.961486816E-1,-2.817384720E0,3.638293743E0
9.291426983E0,-5.230374336E-1,-1.886741638E0,3.573620319E0
9.296462383E0,-7.233262062E-2,-9.769067764E-1,3.500692368E0
9.301467266E0,4.332997799E-1,-7.518482208E-2,3.373418570E0
9.306472149E0,7.705252171E-1,9.176092148E-1,3.310320616E0
9.311477032E0,1.291189432E0,2.241557121E0,3.016623497E0
9.316481914E0,1.725934744E0,3.625714302E0,2.684499741E0
9.321517315E0,1.995793104E0,5.134972572E0,2.280607224E0
9.326522198E0,2.420602560E0,6.818054199E0,1.400607586E0
9.331527080E0,3.581535578E0,8.814679146E0,5.278770924E-1
9.336531963E0,5.494289398E0,1.072425747E1,-3.744186163E-1
9.341536846E0,8.290719986E0,1.249468040E1,-1.433502674E0
9.346572246E0,1.149363518E1,1.418765736E1,-2.539772987E0
9.351577129E0,1.405757904E1,1.556706524E1,-3.540339470E0
9.356582012E0,1.500710201E1,1.659676743E1,-4.436537743E0
9.361586895E0,1.427906227E1,1.702727699E1,-4.659003258E0
9.366591778E0,1.225087738E1,1.694545746E1,-4.637485027E0
9.371596660E0,9.780271530E0,1.639435005E1,-4.078433037E0
9.376632061E0,7.714978218E0,1.584061050E1,-3.196873665E0
9.381636944E0,6.654526234E0,1.541510105E1,-2.064573288E0
9.386641826E0,6.172700405E0,1.495384407E1,-9.981303215E-1
9.391646709E0,5.922109604E0,1.455741692E1,-6.065154076E-2
9.396651592E0,5.992541313E0,1.431369972E1,8.471231461E-1
9.401686992E0,5.647076130E0,1.403415966E1,1.520169497E0
9.406691875E0,4.855511665E0,1.375857925E1,2.266711473E0
9.411696758E0,4.682745934E0,1.371825027E1,2.551135778E0
9.416701641E0,4.458994865E0,1.334302521E1,3.064813852E0
9.421706524E0,6.081040859E0,1.216418457E1,2.922978401E0
9.426741924E0,7.944004059E0,1.129951000E1,2.234966278E0
9.431746807E0,7.902997971E0,1.062354565E1,1.424265504E0
9.436751690E0,7.268008232E0,9.554265976E0,3.694515228E-1
9.441756573E0,6.537422180E0,8.649472237E0,-3.184724152E-1
9.446761455E0,6.050178528E0,7.617325783E0,-1.081386566E0
9.451766338E0,5.889125824E0,6.461300850E0,-1.832842112E0
9.456801739E0,5.766048908E0,5.026579857E0,-2.128885984E0
9.461806621E0,5.367242336E0,3.425160408E0,-2.154388905E0
9.466811504E0,4.965629578E0,1.870075226E0,-2.041084290E0
9.471816387E0,4.361780167E0,4.950389862E-1,-1.447694659E0
9.476821270E0,3.650339127E0,-1.054468155E0,-6.821910143E-1
9.481856670E0,3.224819660E0,-2.326272011E0,-1.020791650E0
9.486861553E0,3.048534870E0,-3.390438080E0,-2.099695206E0
9.491866436E0,2.553282261E0,-4.738135338E0,-3.528933525E0
9.496871319E0,1.254140139E0,-6.950568199E0,-6.319456100E0
9.501876201E0,-4.738883972E-1,-8.384937286E0,-8.898644447E0
9.506911602E0,-1.835498095E0,-8.376229286E0,-9.253426552E0
9.511916485E0,-2.546617270E0,-8.091857910E0,-8.247152328E0
9.516921367E0,-2.569722414E0,-8.205473900E0,-7.353371143E0
9.521926250E0,-2.625131845E0,-8.721627235E0,-6.483813286E0
9.526931133E0,-2.787548304E0,-9.149271965E0,-5.456976891E0
9.531936016E0,-2.908771038E0,-9.404169083E0,-4.400352478E0
9.536971416E0,-2.928785801E0,-9.657023430E0,-3.454291821E0
9.541976299E0,-2.907830954E0,-9.910670280E0,-2.773931026E0
9.546981182E0,-2.841991425E0,-1.004969978E1,-2.142651081E0
9.551986065E0,-2.782945871E0,-1.009972095E1,-1.606349707E0
9.556990948E0,-2.730963469E0,-1.017366028E1,-1.149438143E0
9.562026348E0,-2.720225573E0,-1.025626850E1,-7.950268984E-1
9.567031231E0,-2.750638008E0,-1.037152576E1,-1.510680914E-1
9.572036114E0,-2.727616549E0,-1.043232155E1,2.440895438E-1
9.577040996E0,-2.615521669E0,-1.030492401E1,4.077808857E-1
9.582045879E0,-2.465743780E0,-1.031138897E1,6.421965361E-1
9.587081280E0,-2.378175497E0,-1.026167679E1,1.083381534E0
9.592086162E0,-2.438969851E0,-1.033644199E1,1.868334174E0
9.597091045E0,-2.416327477E0,-1.050325012E1,2.505075455E0
9.602095928E0,-2.373047352E0,-1.056945229E1,2.426508665E0
9.607100811E0,-2.284295082E0,-1.066064548E1,2.795902729E0
9.612105694E0,-2.217488289E0,-1.070742035E1,3.563947678E0
9.617141094E0,-1.968045473E0,-1.086286640E1,6.936893463E0
9.622145977E0,-1.512255311E0,-1.120325947E1,1.227759552E1
9.627150860E0,-1.493327141E0,-1.165048218E1,1.488422775E1
9.632155742E0,-1.492713690E0,-1.195882607E1,1.456544876E1
9.637160625E0,-2.146264553E0,-1.208366776E1,1.135470104E1
9.642196026E0,-2.060761452E0,-1.182495594E1,8.080944061E0
9.647200908E0,-1.985990047E0,-1.160872078E1,5.999208450E0
9.652205791E0,-2.410242558E0,-1.148026562E1,5.141541004E0
9.657210674E0,-2.662187099E0,-1.129247379E1,4.858036041E0
9.662246075E0,-2.891305447E0,-1.095104313E1,4.720731735E0
9.667250957E0,-3.244894743E0,-1.041114807E1,4.452055454E0
9.672255840E0,-3.415468216E0,-9.717707634E0,4.078925610E0
9.677260723E0,-3.381746769E0,-8.905105591E0,3.432543516E0
9.682265606E0,-3.189586878E0,-7.914587975E0,2.623036861E0
9.687270489E0,-3.248365402E0,-7.399862289E0,1.925304413E0
9.692305889E0,-3.400703907E0,-7.031706810E0,1.319996834E0
9.697310772E0,-3.821625948E0,-6.463462830E0,1.071160674E0
9.702315655E0,-5.384757996E0,-4.217214584E0,8.627063036E-1
9.707320537E0,-7.222455502E0,-1.186725616E0,9.164592028E-1
9.712325420E0,-8.475615501E0,2.437638283E0,7.689670324E-1
9.717360821E0,-9.089114189E0,6.300857544E0,1.180899143E0
9.722365703E0,-9.156102180E0,1.051576710E1,2.503194809E0
9.727370586E0,-8.524280548E0,1.464078140E1,4.098659992E0
9.732375469E0,-7.002560616E0,1.784726334E1,5.380616665E0
9.737380352E0,-4.404289246E0,1.987947083E1,6.855039597E0
9.742385235E0,-5.926845074E-1,2.059818649E1,7.988116741E0
9.747420635E0,3.417714834E0,1.999551010E1,7.868206501E0
9.752425518E0,7.284605503E0,1.905279541E1,6.543221474E0
9.757430401E0,1.499843121E1,1.895497894E1,4.604552746E0
9.762435283E0,2.537684631E1,2.000003815E1,2.723477840E0
9.767440166E0,2.877594376E1,2.069353676E1,1.199013233E0
9.772445049E0,2.063946724E1,1.976684761E1,-8.355716467E-1
9.777480450E0,7.412778854E0,1.766477585E1,-2.474209785E0
9.782485332E0,-3.183078766E-1,1.630872345E1,-3.203065872E0
9.787490215E0,-3.765589714E0,1.525485706E1,-3.357134819E0
9.792495098E0,-4.855069160E0,1.406835270E1,-2.699029922E0
9.797499981E0,-2.731058598E0,1.357076454E1,-2.797154665E0
9.802535381E0,-2.892339230E-1,1.351918602E1,-2.047591209E0
9.807540264E0,1.644371510E0,1.385020924E1,-1.074944019E0
9.812545147E0,2.530074358E0,1.385686874E1,-4.914420843E-1
9.817550030E0,2.681974411E0,1.344892311E1,-6.184881926E-2
9.822554912E0,2.690145731E0,1.266020393E1,3.503525257E-2
9.827590313E0,2.836720705E0,1.148606586E1,-2.143892199E-1
9.832595196E0,2.925497770E0,1.016230392E1,-9.089525938E-1
9.837600078E0,3.130153656E0,8.779018402E0,-1.997244835E0
9.842604961E0,3.344531775E0,7.537490845E0,-3.217574835E0
9.847609844E0,3.455926418E0,6.553763390E0,-4.518180370E0
9.852645244E0,3.928918839E0,5.662628174E0,-6.343068600E0
9.857650127E0,4.153854370E0,4.379137039E0,-8.436589241E0
9.862655010E0,4.382132530E0,2.818435669E0,-1.052674580E1
9.867659893E0,4.420691013E0,9.588317871E-1,-1.145073986E1
9.872664776E0,4.420957565E0,-8.815994263E-1,-1.056034374E1
9.877669658E0,5.263867378E0,-1.955967903E0,-9.087948799E0
9.882705059E0,6.184441566E0,-3.045185089E0,-7.568004131E0
9.887709942E0,6.026360035E0,-4.338688850E0,-5.927596569E0
9.892714825E0,5.472678661E0,-5.528775215E0,-3.889926195E0
9.897719707E0,4.491645813E0,-6.677906036E0,-1.335289001E0
9.902724590E0,2.547641993E0,-7.736392975E0,1.555889249E0
9.907759991E0,3.973810673E-1,-8.622335434E0,4.102392197E0
9.912764873E0,-9.714555740E-1,-9.349025726E0,5.544289112E0
9.917769756E0,-1.824586391E0,-9.999320030E0,5.815145969E0
9.922774639E0,-1.953778982E0,-1.043760777E1,4.654609680E0
9.927779522E0,-1.813925266E0,-1.077188969E1,2.946098328E0
9.932814922E0,-2.051079273E0,-1.098715115E1,1.387089252E0
9.937819805E0,-2.261104345E0,-1.113406372E1,2.239095271E-1
9.942824688E0,-2.388300419E0,-1.124526405E1,-3.057900667E-1
9.947829571E0,-2.517004490E0,-1.123140621E1,-5.784616470E-1
9.952834453E0,-2.717084169E0,-1.115026855E1,-6.165657043E-1
9.957839336E0,-3.047968388E0,-1.109406662E1,-5.272247791E-1
9.962874737E0,-3.129558563E0,-1.102914619E1,-2.687300742E-1
9.967879619E0,-3.270759583E0,-1.098098183E1,6.726977229E-2
9.972884502E0,-3.323088884E0,-1.086947632E1,3.745314479E-1
9.977889385E0,-3.319569588E0,-1.081323814E1,6.291946173E-1
9.982894268E0,-3.331765652E0,-1.076806450E1,7.913451195E-1
9.987929668E0,-3.292443514E0,-1.069696617E1,8.795886636E-1
9.992934551E0,-3.305022717E0,-1.062417030E1,8.849952817E-1
9.997939434E0,-3.246384382E0,-1.049582005E1,9.333332181E-1
1.000294432E1,-3.331573486E0,-1.038384056E1,9.530095458E-1
1.000794920E1,-3.346338272E0,-1.025952339E1,9.957500696E-1
1.001298460E1,-3.286140442E0,-1.010847282E1,1.014975429E0
1.001798948E1,-3.278616905E0,-9.899759293E0,9.472154975E-1
1.002299437E1,-3.269939423E0,-9.699199677E0,9.191932678E-1
1.002799925E1,-3.323751926E0,-9.430151939E0,8.945889473E-1
1.003300413E1,-3.382902145E0,-9.165448189E0,8.971678019E-1
1.003800901E1,-3.474230766E0,-8.922782898E0,9.338490367E-1
1.004304441E1,-3.550398111E0,-8.705455780E0,9.949537516E-1
1.004804930E1,-3.582019329E0,-8.529985428E0,9.575110674E-1
1.005305418E1,-3.577680826E0,-8.447642326E0,9.924166799E-1
1.005805906E1,-3.502732038E0,-8.362680435E0,1.076338291E0
1.006306395E1,-3.437291622E0,-8.265599251E0,1.223173738E0
1.006809935E1,-3.364912748E0,-8.102500916E0,1.356970072E0
1.007310423E1,-3.374226332E0,-7.972764969E0,1.433155179E0
1.007810911E1,-3.427155018E0,-7.777029037E0,1.578718781E0
1.008311399E1,-3.462976694E0,-7.517618179E0,1.758898020E0
1.008811888E1,-3.348224401E0,-7.061754227E0,1.814462900E0
1.009315428E1,-3.210275650E0,-6.193115234E0,1.861464977E0
1.009815916E1,-3.127660513E0,-4.923916817E0,1.876502872E0
1.010316404E1,-3.008536339E0,-3.239635468E0,1.918336272E0
1.010816893E1,-2.932563305E0,-1.166272163E0,2.032162666E0
1.011317381E1,-3.451495886E0,1.551723480E0,2.078981400E0
1.011817869E1,-3.424209833E0,4.903929710E0,2.157954693E0
1.012321409E1,-2.812780857E0,8.663598061E0,2.430966854E0
1.012821898E1,-1.804659128E0,1.225774574E1,2.866334438E0
1.013322386E1,5.572123528E-1,1.546310043E1,3.010387897E0
1.013822874E1,4.745009899E0,1.814597702E1,2.685655117E0
1.014323362E1,1.168770027E1,2.024911880E1,1.950148702E0
1.014826902E1,1.812952042E1,2.167144775E1,1.269114614E0
1.015327391E1,2.124430275E1,2.276840591E1,3.451445103E-1
1.015827879E1,1.929802322E1,2.301829147E1,-5.124979019E-1
1.016328367E1,1.404017448E1,2.195140839E1,-1.595252752E0
1.016828856E1,9.292744637E0,2.035801506E1,-2.640834332E0
1.017332396E1,6.595239639E0,1.876018524E1,-3.094393015E0
1.017832884E1,5.638554096E0,1.642476273E1,-2.964223385E0
1.018333372E1,5.195241451E0,1.437321472E1,-2.384155273E0
1.018833860E1,4.233494759E0,1.304216766E1,-1.659561157E0
1.019334349E1,3.457433701E0,1.211540413E1,-1.161423087E0
1.019834837E1,2.774350166E0,1.185052586E1,-7.596285343E-1
1.020338377E1,2.759652615E0,1.154049492E1,-1.040514708E-1
1.020838865E1,2.506309032E0,1.114824390E1,5.240139961E-1
1.021339354E1,1.640370369E0,1.071778107E1,1.022185564E0
1.021839842E1,9.047832489E-1,1.020392227E1,1.318101287E0
1.022340330E1,6.103801727E-1,9.570014000E0,1.012557864E0
1.022843870E1,4.999017715E-1,8.630980492E0,4.371641874E-1
1.023344358E1,8.754348755E-1,7.705698967E0,-3.195971251E-2
1.023844847E1,1.615532398E0,6.982789993E0,-5.348036289E-1
1.024345335E1,2.199757576E0,6.370912552E0,-1.015403032E0
1.024845823E1,2.149029732E0,5.615198135E0,-1.233030200E0
1.025349363E1,2.101101398E0,4.539078712E0,-1.241885543E0
1.025849852E1,1.988174915E0,3.380309105E0,-1.185832024E0
1.026350340E1,1.733828545E0,2.213311195E0,-1.085129499E0
1.026850828E1,1.684052467E0,1.090739250E0,-1.034544706E0
1.027351316E1,1.464850664E0,2.328395844E-2,-8.452732563E-1
1.027854857E1,1.028535366E0,-9.913177490E-1,-4.810597599E-1
1.028355345E1,4.919068813E-1,-1.962272644E0,-5.136886239E-1
1.028855833E1,1.797366142E-2,-2.790529251E0,-5.697122216E-1
1.029356321E1,-3.411312103E-1,-3.545633316E0,-6.259959936E-1
1.029856810E1,-5.702197552E-1,-4.196854591E0,-7.474634051E-1
1.030357298E1,-7.752320766E-1,-4.775727272E0,-8.698745966E-1
1.030860838E1,-9.112038612E-1,-5.337698936E0,-1.245326757E0
1.031361326E1,-1.022331238E0,-5.848181725E0,-1.877648473E0
1.031861814E1,-1.090046406E0,-6.338393211E0,-2.367895365E0
1.032362303E1,-1.209041119E0,-6.777331352E0,-2.843896627E0
1.032862791E1,-1.225979090E0,-7.245226860E0,-3.292063713E0
1.033366331E1,-1.196072102E0,-7.757814407E0,-3.495230436E0
