"Time (s)","Gyroscope x (rad/s)","Gyroscope y (rad/s)","Gyroscope z (rad/s)"
2.529605400E-2,7.196426392E-2,-1.552772522E-1,2.937316895E-3
3.030093700E-2,7.944107056E-2,-1.393890381E-1,1.361846924E-2
3.527530200E-2,7.303237915E-2,-1.190948486E-1,3.377914429E-2
4.028018500E-2,5.273818970E-2,-9.452819824E-2,4.873275757E-2
4.528506800E-2,2.830505371E-2,-9.252548218E-2,6.261825562E-2
5.032046800E-2,4.806518555E-3,-1.073455811E-1,7.650375366E-2
5.532535100E-2,-8.010864258E-3,-1.180267334E-1,8.491516113E-2
6.033023400E-2,-1.655578613E-2,-1.297760010E-1,8.705139160E-2
6.533511700E-2,-1.014709473E-2,-1.436614990E-1,8.291244507E-2
7.033999900E-2,8.010864258E-3,-1.542091370E-1,7.329940796E-2
7.534488200E-2,3.351211548E-2,-1.478004456E-1,6.261825562E-2
8.038028300E-2,6.555557251E-2,-1.212310791E-1,4.552841187E-2
8.538516500E-2,9.746551514E-2,-9.038925171E-2,2.429962158E-2
9.039004800E-2,1.261711121E-1,-5.727767944E-2,1.041412354E-2
9.539493100E-2,1.464653015E-1,-3.391265869E-2,-3.471374512E-3
1.003998140E-1,1.528739929E-1,-2.643585205E-2,-1.508712769E-2
1.054352140E-1,1.560783386E-1,-2.750396729E-2,-2.042770386E-2
1.104400970E-1,1.518058777E-1,-4.032135010E-2,-1.935958862E-2
1.154449800E-1,1.507377625E-1,-5.514144897E-2,-1.401901245E-2
1.204498630E-1,1.464653015E-1,-7.650375366E-2,-2.403259277E-3
1.254547460E-1,1.400566101E-1,-1.030731201E-1,9.346008301E-3
1.304901460E-1,1.252365112E-1,-1.308441162E-1,2.323150635E-2
1.354950290E-1,1.102828979E-1,-1.456642151E-1,4.018783569E-2
1.404999120E-1,9.639739990E-2,-1.488685608E-1,5.514144897E-2
1.455047940E-1,8.571624756E-2,-1.447296143E-1,7.009506226E-2
1.505096770E-1,7.944107056E-2,-1.361846924E-1,7.436752319E-2
1.555450780E-1,6.875991821E-2,-1.276397705E-1,7.009506226E-2
1.605499600E-1,6.235122681E-2,-1.094818115E-1,6.048202515E-2
1.655548430E-1,6.341934204E-2,-9.773254395E-2,5.193710327E-2
1.705597260E-1,7.516860962E-2,-7.863998413E-2,4.232406616E-2
1.755646090E-1,9.105682373E-2,-5.620956421E-2,3.911972046E-2
1.806000090E-1,1.124191284E-1,-3.177642822E-2,4.018783569E-2
1.856048920E-1,1.336479187E-1,-1.575469971E-2,4.446029663E-2
1.906097750E-1,1.571464539E-1,-7.209777832E-3,3.805160522E-2
1.956146580E-1,1.773071289E-1,-8.277893066E-3,3.284454346E-2
2.006195400E-1,1.837158203E-1,-2.429962158E-2,2.750396729E-2
2.056549410E-1,1.783752441E-1,-4.980087280E-2,1.789093018E-2
2.106598240E-1,1.667594910E-1,-7.970809937E-2,1.575469971E-2
2.156647060E-1,1.528739929E-1,-1.148223877E-1,1.361846924E-2
2.206695890E-1,1.357841492E-1,-1.574134827E-1,1.361846924E-2
2.256744720E-1,1.220321655E-1,-2.021408081E-1,1.789093018E-2
2.307098720E-1,1.145553589E-1,-2.395248413E-1,1.895904541E-2
2.357147550E-1,1.038742065E-1,-2.575492859E-1,3.070831299E-2
2.407196380E-1,1.006698608E-1,-2.703666687E-1,4.339218140E-2
2.457245210E-1,9.960174561E-2,-2.746391296E-1,5.514144897E-2
2.507294040E-1,1.049423218E-1,-2.692985535E-1,6.475448608E-2
2.557648040E-1,1.124191284E-1,-2.511405945E-1,7.009506226E-2
2.607696870E-1,1.272392273E-1,-2.202987671E-1,7.223129272E-2
2.657745700E-1,1.464653015E-1,-1.873207092E-1,7.970809937E-2
2.707794530E-1,1.721000671E-1,-1.552772522E-1,8.705139160E-2
2.757843350E-1,2.040100098E-1,-1.244354248E-1,8.918762207E-2
2.808197360E-1,2.444648743E-1,-8.718490601E-2,9.559631348E-2
2.858246190E-1,2.827835083E-1,-5.834579468E-2,1.073455811E-1
2.908295010E-1,3.233718872E-1,-3.391265869E-2,1.169586182E-1
2.958343840E-1,3.659629822E-1,-2.857208252E-2,1.276397705E-1
3.008392670E-1,4.064178467E-1,-4.446029663E-2,1.381874084E-1
3.058746670E-1,4.458045959E-1,-7.329940796E-2,1.467323303E-1
3.108795500E-1,4.778480530E-1,-1.137542725E-1,1.520729065E-1
3.158844330E-1,5.086898804E-1,-1.648902893E-1,1.563453674E-1
3.208893160E-1,5.384635925E-1,-2.256393433E-1,1.595497131E-1
3.259247160E-1,5.640983582E-1,-2.990722656E-1,1.670265198E-1
3.309295990E-1,5.895996094E-1,-3.683662415E-1,1.777076721E-1
3.359344820E-1,6.120300293E-1,-4.344558716E-1,1.830482483E-1
3.409393650E-1,6.300544739E-1,-4.791831970E-1,1.809120178E-1
3.459442470E-1,6.439399719E-1,-5.025482178E-1,1.702308655E-1
3.509491300E-1,6.556892395E-1,-5.121612549E-1,1.563453674E-1
3.559540130E-1,6.620979309E-1,-4.909324646E-1,1.392555237E-1
3.609588960E-1,6.695747375E-1,-4.259109497E-1,1.201629639E-1
3.659637790E-1,6.854629517E-1,-3.225708008E-1,9.986877441E-2
3.709686620E-1,7.143020630E-1,-1.926612854E-1,7.650375366E-2
3.760040620E-1,7.643699646E-1,-4.980087280E-2,5.086898804E-2
3.810089450E-1,8.506202698E-1,7.476806641E-2,3.484725952E-2
3.860138280E-1,9.507560730E-1,2.132225037E-1,4.339218140E-2
3.910187100E-1,1.056232452E0,3.954696655E-1,7.863998413E-2
3.960541110E-1,1.154232025E0,6.458091736E-1,1.340484619E-1
4.010589940E-1,1.229801178E0,9.366035461E-1,1.777076721E-1
4.060943940E-1,1.280937195E0,1.209239960E0,1.989364624E-1
4.110992770E-1,1.321525574E0,1.429805756E0,2.213668823E-1
4.161041600E-1,1.343822479E0,1.561851501E0,2.458000183E-1
4.211090420E-1,1.351299286E0,1.615123749E0,2.607536316E-1
4.261139250E-1,1.342754364E0,1.627941132E0,2.543449402E-1
4.311188080E-1,1.314048767E0,1.618328094E0,2.202987671E-1
4.361236910E-1,1.257572174E0,1.591758728E0,1.606178284E-1
4.411285740E-1,1.202163696E0,1.584281921E0,1.244354248E-1
4.461334560E-1,1.159572601E0,1.607646942E0,1.222991943E-1
4.511688570E-1,1.114845276E0,1.634349823E0,1.340484619E-1
4.562042570E-1,1.075458527E0,1.675872803E0,1.563453674E-1
4.612091400E-1,1.044483185E0,1.730213165E0,1.777076721E-1
4.662140230E-1,1.031665802E0,1.813259125E0,1.978683472E-1
4.712189060E-1,1.040210724E0,1.929416656E0,2.085494995E-1
4.762237890E-1,1.079597473E0,2.056121826E0,2.117538452E-1
4.812286710E-1,1.149959564E0,2.188301086E0,2.064132690E-1
4.862335540E-1,1.246891022E0,2.339572906E0,1.957321167E-1
4.912384370E-1,1.360912323E0,2.552528381E0,1.830482483E-1
4.962433200E-1,1.459980011E0,2.854003906E0,1.745033264E-1
5.012787200E-1,1.540889740E0,3.221569061E0,1.862525940E-1
5.062836030E-1,1.590957642E0,3.622112274E0,1.946640015E-1
5.113190030E-1,1.564388275E0,4.137744904E0,1.841163635E-1
5.163238860E-1,1.494026184E0,4.488220215E0,1.882553101E-1
5.213287690E-1,1.419525146E0,4.511585236E0,1.809120178E-1
5.263336520E-1,1.312980652E0,4.467926025E0,1.392555237E-1
5.313385350E-1,1.235141754E0,4.346561432E0,4.873275757E-2
5.363739350E-1,1.196823120E0,4.138813019E0,-3.751754761E-2
5.413788180E-1,1.153163910E0,3.969383240E0,-8.331298828E-2
5.463837010E-1,1.112709045E0,3.935337067E0,-1.089477539E-1
5.513885830E-1,1.108436584E0,4.039745331E0,-1.248359680E-1
5.563934660E-1,1.157436371E0,4.268722534E0,-1.323127747E-1
5.614288670E-1,1.249027252E0,4.642696381E0,-1.110839844E-1
5.664337490E-1,1.380004883E0,5.141239166E0,-6.942749023E-2
5.714386320E-1,1.536617279E0,5.687713623E0,2.937316895E-3
5.764435150E-1,1.654911041E0,6.152076721E0,1.616859436E-1
5.814483980E-1,1.655979156E0,6.371574402E0,3.779792786E-1
5.864837980E-1,1.557979584E0,6.367301941E0,5.622291565E-1
5.914886810E-1,1.441822052E0,6.236324310E0,6.580924988E-1
5.964935640E-1,1.344890594E0,6.017894745E0,6.846618652E-1
6.014984470E-1,1.278800964E0,5.793056488E0,6.805229187E-1
6.065033300E-1,1.239414215E0,5.575828552E0,6.452751160E-1
6.115387300E-1,1.234073639E0,5.359535217E0,5.920028687E-1
6.165436130E-1,1.275730133E0,5.197582245E0,5.281829834E-1
6.215484960E-1,1.368389130E0,5.210399628E0,4.503440857E-1
6.265533780E-1,1.506843567E0,5.424556732E0,3.758430481E-1
6.315582610E-1,1.668796539E0,5.800533295E0,3.279113770E-1
6.365936620E-1,1.812591553E0,6.258621216E0,3.491401672E-1
6.415985440E-1,1.881752014E0,6.632595062E0,4.770469666E-1
6.466034270E-1,1.851978302E0,6.761436462E0,6.741142273E-1
6.516083100E-1,1.763591766E0,6.613368988E0,8.881378174E-1
6.566131930E-1,1.667728424E0,6.236324310E0,1.093750000E0
6.616485930E-1,1.588821411E0,5.726032257E0,1.257839203E0
6.666534760E-1,1.488685608E0,5.169944763E0,1.363315582E0
6.716583590E-1,1.301231384E0,4.575538635E0,1.390953064E0
6.766632420E-1,1.069049835E0,3.869247437E0,1.306838989E0
6.816681240E-1,8.442115784E-1,3.120365143E0,1.142749786E0
6.867035250E-1,6.503486633E-1,2.417278290E0,9.531593323E-1
6.917084080E-1,5.097579956E-1,1.743030548E0,7.507514954E-1
6.967132900E-1,3.936004639E-1,1.028194427E0,5.526161194E-1
7.017181730E-1,2.508735657E-1,2.463340759E-1,3.651618958E-1
7.067230560E-1,9.532928467E-2,-6.208419800E-1,1.871871948E-1
7.117584560E-1,2.403259277E-2,-1.618995667E0,8.918762207E-2
7.167633390E-1,6.128311157E-2,-2.582035065E0,3.805160522E-2
7.217682220E-1,1.710319519E-1,-3.374576569E0,-5.607604980E-3
7.267731050E-1,3.317832947E-1,-3.985004425E0,-4.713058472E-2
7.317779880E-1,5.277824402E-1,-4.382343292E0,-1.280403137E-1
7.368133880E-1,6.801223755E-1,-4.686889648E0,-3.006744385E-1
7.418182710E-1,7.078933716E-1,-5.000114441E0,-4.742431641E-1
7.468231540E-1,6.205749512E-1,-5.099182129E0,-5.574226379E-1
7.518280370E-1,4.340553284E-1,-4.820137024E0,-5.157661438E-1
7.568634370E-1,1.826477051E-1,-4.112777710E0,-3.592872620E-1
7.618683200E-1,-7.396697998E-2,-3.115692139E0,-1.323127747E-1
7.668426850E-1,-2.849197388E-1,-2.098312378E0,1.105499268E-1
7.718475680E-1,-4.351234436E-1,-1.295089722E0,3.311157227E-1
7.768829680E-1,-4.682350159E-1,-8.498191833E-1,5.239105225E-1
7.819183690E-1,-3.403282166E-1,-7.475471497E-1,6.773185730E-1
7.868927340E-1,-1.038742065E-1,-8.434104919E-1,7.560920715E-1
7.919281340E-1,1.539421082E-1,-1.045818329E0,7.571601868E-1
7.969330170E-1,3.713035583E-1,-1.214179993E0,7.102966309E-1
8.019379000E-1,4.883956909E-1,-1.384677887E0,6.687736511E-1
8.069427830E-1,5.022811890E-1,-1.672267914E0,6.399345398E-1
8.119781830E-1,4.297828674E-1,-1.985492706E0,6.016159058E-1
8.169525480E-1,2.998733521E-1,-2.435035706E0,5.590248108E-1
8.219574310E-1,1.421928406E-1,-3.066692352E0,4.918670654E-1
8.269623140E-1,-3.992080688E-2,-3.726119995E0,4.002761841E-1
8.319977140E-1,-2.263069153E-1,-4.365253448E0,3.182983398E-1
8.370025970E-1,-3.882598877E-1,-4.960727692E0,2.256393433E-1
8.420074800E-1,-5.022811890E-1,-5.564746857E0,1.041412354E-1
8.470428800E-1,-5.512809753E-1,-6.157016754E0,-2.149581909E-2
8.520477630E-1,-5.331230164E-1,-6.479854584E0,-9.399414062E-2
8.570526460E-1,-4.490089417E-1,-6.430721283E0,-9.185791016E-2
8.620880460E-1,-2.923965454E-1,-6.149539948E0,-1.935958862E-2
8.670929290E-1,-5.487442017E-2,-5.783176422E0,7.863998413E-2
8.720978120E-1,2.243041992E-1,-5.404930115E0,1.456642151E-1
8.771026950E-1,4.905319214E-1,-5.039501190E0,1.862525940E-1
8.821075780E-1,6.833267212E-1,-4.638957977E0,2.021408081E-1
8.871429780E-1,7.036209106E-1,-4.210777283E0,2.267074585E-1
8.921478610E-1,5.097579956E-1,-3.759098053E0,2.671623230E-1
8.971527440E-1,2.327156067E-1,-3.262691498E0,2.937316895E-1
9.021576260E-1,5.914688110E-2,-2.767353058E0,2.958679199E-1
9.071625090E-1,4.739761353E-2,-2.408332825E0,2.926635742E-1
9.121673920E-1,1.347160339E-1,-2.244243622E0,3.118896484E-1
9.171722750E-1,2.125549316E-1,-2.231559753E0,3.758430481E-1
9.222076750E-1,2.380561829E-1,-2.265605927E0,4.823875427E-1
9.272125580E-1,2.125549316E-1,-2.267742157E0,6.048202515E-1
9.322174410E-1,1.464653015E-1,-2.217674255E0,7.060241699E-1
9.372223240E-1,5.167007446E-2,-2.156925201E0,7.774543762E-1
9.422577240E-1,-5.701065063E-2,-2.091903687E0,7.933425903E-1
9.472626070E-1,-1.688957214E-1,-2.010993958E0,7.657051086E-1
9.522674900E-1,-2.412605286E-1,-1.935424805E0,6.942749023E-1
9.572723720E-1,-2.466011047E-1,-1.933288574E0,5.697059631E-1
9.622772550E-1,-1.901245117E-1,-1.985492706E0,4.280471802E-1
9.673126560E-1,-9.639739990E-2,-1.921539307E0,3.118896484E-1
9.723175390E-1,1.014709473E-2,-1.642360687E0,2.383232117E-1
9.773224210E-1,1.272392273E-1,-1.217384338E0,2.021408081E-1
9.823273040E-1,2.765083313E-1,-7.945442200E-1,1.777076721E-1
9.873321870E-1,4.639625549E-1,-4.802513123E-1,1.616859436E-1
9.923675870E-1,7.121658325E-1,-2.885246277E-1,1.702308655E-1
9.973724700E-1,1.020050049E0,-2.160263062E-1,2.117538452E-1
1.002377353E0,1.358776093E0,-2.436637878E-1,2.607536316E-1
1.007382236E0,1.728343964E0,-2.778434753E-1,2.947998047E-1
1.012387119E0,2.099113464E0,-2.074813843E-1,3.300476074E-1
1.017422519E0,2.365474701E0,-2.964019775E-2,4.066848755E-1
1.022427402E0,2.473087311E0,1.749038696E-1,5.025482178E-1
1.027432285E0,2.465610504E0,3.486061096E-1,5.600929260E-1
1.032437167E0,2.410202026E0,4.348564148E-1,5.654335022E-1
1.037442050E0,2.359066010E0,4.092216492E-1,5.345916748E-1
1.042477451E0,2.318611145E0,3.240394592E-1,4.865264893E-1
1.047482333E0,2.269611359E0,2.558135986E-1,4.385948181E-1
1.052487216E0,2.194976807E0,2.356529236E-1,3.863906860E-1
1.057492099E0,2.104454041E0,2.878570557E-1,3.118896484E-1
1.062496982E0,2.004318237E0,4.092216492E-1,2.181625366E-1
1.067532382E0,1.920204163E0,5.424690247E-1,1.351165771E-1
1.072537265E0,1.879615784E0,6.552886963E-1,7.543563843E-2
1.077542148E0,1.844501495E0,7.022857666E-1,4.552841187E-2
1.082547031E0,1.792297363E0,6.563568115E-1,2.964019775E-2
1.087551914E0,1.745433807E0,5.392646790E-1,-2.576828003E-2
1.092587314E0,1.712455750E0,3.751754761E-1,-8.865356445E-2
1.097592197E0,1.712455750E0,2.016067505E-1,-1.046752930E-1
1.102597080E0,1.755046844E0,7.583618164E-2,-1.025390625E-1
1.107601962E0,1.806182861E0,-4.766464233E-2,-1.057434082E-1
1.112606845E0,1.849842072E0,-2.543449402E-1,-1.919937134E-1
1.117642246E0,1.838092804E0,-4.291152954E-1,-3.656959534E-1
1.122647128E0,1.657047272E0,-2.650260925E-1,-4.401969910E-1
1.127652011E0,1.286277771E0,1.663589478E-1,-2.441978455E-1
1.132656894E0,8.974838257E-1,4.327201843E-1,5.073547363E-3
1.137661777E0,6.770515442E-1,3.922653198E-1,1.276397705E-1
1.142697177E0,5.842590332E-1,3.815841675E-1,1.319122314E-1
1.147702060E0,4.990768433E-1,5.542182922E-1,4.659652710E-2
1.152706943E0,3.595542908E-1,7.810592651E-1,-5.674362183E-2
1.157711826E0,2.562141418E-1,1.066513062E0,-1.684951782E-1
1.162716708E0,3.223037720E-1,1.451034546E0,-2.750396729E-1
1.167752109E0,4.575538635E-1,1.856918335E0,-4.018783569E-1
1.172756992E0,5.576896667E-1,2.172279358E0,-5.829238892E-1
1.177761874E0,6.120300293E-1,2.380027771E0,-7.671737671E-1
1.182766757E0,6.279182434E-1,2.299118042E0,-9.152412415E-1
1.187771640E0,6.024169922E-1,1.949710846E0,-1.003761292E0
1.192807040E0,5.438041687E-1,1.554374695E0,-1.030330658E0
1.197811923E0,5.054855347E-1,1.150760651E0,-1.036739349E0
1.202816806E0,5.544853210E-1,7.938766479E-1,-1.060237885E0
1.207821689E0,6.279182434E-1,5.392646790E-1,-1.037807465E0
1.212826572E0,6.918716431E-1,3.890609741E-1,-9.856033325E-1
1.217861972E0,7.494163513E-1,2.931976318E-1,-9.579658508E-1
1.222866855E0,7.590293884E-1,2.196311951E-1,-8.694458008E-1
1.227871738E0,7.558250427E-1,1.162910461E-1,-6.447410583E-1
1.232876621E0,8.069610596E-1,1.205635071E-1,-3.357887268E-1
1.237881503E0,9.209823608E-1,4.145622253E-1,-8.117675781E-2
1.242916904E0,1.063709259E0,7.757186890E-1,1.777076721E-1
1.247921787E0,1.211776733E0,8.683776855E-1,5.046844482E-1
1.252926669E0,1.202163696E0,1.225261688E0,8.104324341E-1
1.257931552E0,1.142482758E0,1.557579041E0,9.371376038E-1
1.262936435E0,1.049823761E0,1.520328522E0,1.059703827E0
1.267971835E0,8.463478088E-1,1.511783600E0,1.302566528E0
1.272976718E0,6.929397583E-1,1.387214661E0,1.464519501E0
1.277981601E0,5.256462097E-1,2.803802490E-1,1.671199799E0
1.282986484E0,2.125549316E-1,-7.102966309E-1,1.939563751E0
1.287991367E0,-3.244400024E-2,-1.042613983E0,1.868267059E0
1.293026767E0,-2.753067017E-1,-8.998870850E-1,1.522064209E0
1.298031650E0,-5.767822266E-1,-6.623649597E-1,1.156635284E0
1.303036533E0,-8.570289612E-1,-6.379318237E-1,8.743858337E-1
1.308041415E0,-1.082801819E0,-8.008193970E-1,6.442070007E-1
1.313046298E0,-1.238346100E0,-1.054363251E0,4.216384888E-1
1.318051181E0,-1.329936981E0,-1.256771088E0,1.925277710E-1
1.323086581E0,-1.342754364E0,-1.361179352E0,-8.651733398E-2
1.328091464E0,-1.307640076E0,-1.313247681E0,-3.730392456E-1
1.333096347E0,-1.205368042E0,-1.083202362E0,-6.064224243E-1
1.338101230E0,-1.028461456E0,-7.657051086E-1,-7.906723022E-1
1.343106113E0,-8.538246155E-1,-4.408645630E-1,-9.590339661E-1
1.348141513E0,-7.184410095E-1,-1.989364624E-1,-1.118717194E0
1.353146396E0,-6.184387207E-1,-4.873275757E-2,-1.262512207E0
1.358151279E0,-5.502128601E-1,2.042770386E-2,-1.378669739E0
1.363156162E0,-4.948043823E-1,4.405975342E-3,-1.503372192E0
1.368161044E0,-4.628944397E-1,-6.902694702E-2,-1.621532440E0
1.373196445E0,-4.596900940E-1,-2.021408081E-1,-1.712055206E0
1.378201328E0,-4.532814026E-1,-3.480720520E-1,-1.785621643E0
1.383206210E0,-4.426002502E-1,-4.344558716E-1,-1.846370697E0
1.388211093E0,-4.287147522E-1,-4.770469666E-1,-1.890029907E0
1.393215976E0,-4.128265381E-1,-5.142974854E-1,-1.913394928E0
1.398251376E0,-3.914642334E-1,-5.686378479E-1,-1.924076080E0
1.403256259E0,-3.584861755E-1,-6.069564819E-1,-1.925144196E0
1.408261142E0,-3.275108337E-1,-6.101608276E-1,-1.918735504E0
1.413266025E0,-3.232383728E-1,-5.654335022E-1,-1.932621002E0
1.418270908E0,-3.349876404E-1,-5.078887939E-1,-1.955051422E0
1.423306308E0,-3.381919861E-1,-4.791831970E-1,-1.975212097E0
1.428311191E0,-3.200340271E-1,-5.100250244E-1,-1.993370056E0
1.433316074E0,-3.105545044E-1,-5.590248108E-1,-2.015666962E0
1.438320956E0,-3.084182739E-1,-6.379318237E-1,-2.011394501E0
1.443325839E0,-3.116226196E-1,-7.135009766E-1,-1.965599060E0
1.448361240E0,-3.317832947E-1,-7.625007629E-1,-1.900711060E0
1.453366122E0,-3.680992126E-1,-7.742500305E-1,-1.830348969E0
1.458371005E0,-4.106903076E-1,-7.412719727E-1,-1.750507355E0
1.463375888E0,-4.447364807E-1,-6.901359558E-1,-1.684417725E0
1.468380771E0,-4.787826538E-1,-6.283187866E-1,-1.627941132E0
1.473416171E0,-5.183029175E-1,-5.153656006E-1,-1.589622498E0
1.478421054E0,-5.448722839E-1,-3.268432617E-1,-1.563987732E0
1.483425937E0,-5.299186707E-1,-5.300521851E-2,-1.526737213E0
1.488430820E0,-4.841232300E-1,2.217674255E-1,-1.462783813E0
1.493435703E0,-3.797149658E-1,5.157661438E-1,-1.397895813E0
1.498471103E0,-2.806472778E-1,7.523536682E-1,-1.325397491E0
1.503475986E0,-2.189636230E-1,8.876037598E-1,-1.261444092E0
1.508480869E0,-1.869201660E-1,9.578323364E-1,-1.214580536E0
1.513485751E0,-1.646232605E-1,9.877395630E-1,-1.169853210E0
1.518490634E0,-1.166915894E-1,9.898757935E-1,-1.133670807E0
1.523526035E0,-6.341934204E-2,9.941482544E-1,-1.111373901E0
1.528530917E0,-1.335144043E-2,9.994888306E-1,-1.103897095E0
1.533535800E0,3.137588501E-2,1.010036469E0,-1.099624634E0
1.538540683E0,7.730484009E-2,1.016445160E0,-1.086807251E0
1.543545566E0,9.746551514E-2,9.920120239E-1,-1.069717407E0
1.548580966E0,9.319305420E-2,9.578323364E-1,-1.066513062E0
1.553585849E0,7.730484009E-2,9.333992004E-1,-1.069717407E0
1.558590732E0,5.701065063E-2,9.216499329E-1,-1.080398560E0
1.563595615E0,2.616882324E-2,9.141731262E-1,-1.096420288E0
1.568600497E0,-5.340576172E-4,9.120368958E-1,-1.098556519E0
1.573635898E0,-1.869201660E-2,8.865356445E-1,-1.083602905E0
1.578640781E0,-3.137588501E-2,8.460807800E-1,-1.054897308E0
1.583645664E0,-5.807876587E-2,7.906723022E-1,-1.021785736E0
1.588650546E0,-9.319305420E-2,7.416725159E-1,-9.813308716E-1
1.593655429E0,-1.389884949E-1,7.042884827E-1,-9.291267395E-1
1.598690830E0,-1.783752441E-1,6.638336182E-1,-8.662414551E-1
1.603695712E0,-2.295112610E-1,6.255149841E-1,-7.960128784E-1
1.608700595E0,-2.870559692E-1,6.105613708E-1,-7.235145569E-1
1.613705478E0,-3.435325623E-1,6.404685974E-1,-6.564903259E-1
1.618710361E0,-3.871917725E-1,7.395362854E-1,-6.064224243E-1
1.623745761E0,-4.213714600E-1,8.769226074E-1,-5.722427368E-1
1.628750644E0,-4.447364807E-1,1.002559662E0,-5.392646790E-1
1.633755527E0,-4.703712463E-1,1.094284058E0,-5.094909668E-1
1.638760410E0,-4.916000366E-1,1.135807037E0,-4.934692383E-1
1.643765292E0,-5.309867859E-1,1.108036041E0,-5.041503906E-1
1.648800693E0,-5.640983582E-1,1.033535004E0,-4.913330078E-1
1.653805576E0,-5.714416504E-1,9.141731262E-1,-4.487419128E-1
1.658810458E0,-5.694389343E-1,7.491493225E-1,-3.826522827E-1
1.663815341E0,-5.352592468E-1,5.733108521E-1,-2.761077881E-1
1.668820224E0,-4.351234436E-1,5.009460449E-1,-1.419258118E-1
1.673855624E0,-3.243064880E-1,5.179023743E-1,-3.751754761E-2
1.678860507E0,-2.093505859E-1,6.094932556E-1,4.873275757E-2
1.683865390E0,-8.251190186E-2,6.894683838E-1,1.308441162E-1
1.688870273E0,3.992080688E-2,7.341957092E-1,2.329826355E-1
1.693875156E0,1.315116882E-1,7.928085327E-1,3.215026855E-1
1.698910556E0,1.954650879E-1,8.662414551E-1,3.906631470E-1
1.703915439E0,2.423286438E-1,9.440803528E-1,4.567527771E-1
1.708920322E0,2.859878540E-1,9.973526001E-1,5.281829834E-1
1.713925205E0,3.285789490E-1,1.020717621E0,5.898666382E-1
1.718930087E0,3.627586365E-1,1.038875580E0,6.570243835E-1
1.723965488E0,3.839874268E-1,1.067581177E0,7.252502441E-1
1.728970371E0,3.925323486E-1,1.122989655E0,7.827949524E-1
1.733975253E0,3.745079041E-1,1.202831268E0,8.327293396E-1
1.738980136E0,3.371238708E-1,1.284942627E0,8.658409119E-1
1.743985019E0,2.934646606E-1,1.348896027E0,8.849334717E-1
1.748989902E0,2.455329895E-1,1.402034760E0,8.605003357E-1
1.754025302E0,1.241683960E-1,1.413784027E0,8.370018005E-1
1.759030185E0,-4.312515259E-2,1.349964142E0,8.168411255E-1
1.764035068E0,-1.933288574E-1,1.323261261E0,6.867980957E-1
1.769039951E0,-3.446006775E-1,1.353168488E0,5.462074280E-1
1.774044833E0,-4.809188843E-1,1.165580750E0,5.046844482E-1
1.779080234E0,-6.173706055E-1,7.778549194E-1,5.622291565E-1
1.784085117E0,-7.046890259E-1,4.827880859E-1,6.293869019E-1
1.789089999E0,-7.398033142E-1,3.357887268E-1,6.985473633E-1
1.794094882E0,-7.941436768E-1,2.025413513E-1,8.380699158E-1
1.799099765E0,-8.101654053E-1,5.554199219E-2,1.007499695E0
1.804135165E0,-8.080291748E-1,1.401901245E-2,1.234340668E0
1.809140048E0,-7.695770264E-1,-2.429962158E-2,1.479473114E0
1.814144931E0,-7.175064087E-1,-1.062774658E-1,1.759586334E0
1.819149814E0,-6.535530090E-1,-2.799797058E-1,2.025947571E0
1.824154697E0,-6.045532227E-1,-4.717063904E-1,2.297515869E0
1.829190097E0,-5.725097656E-1,-7.380676270E-1,2.597923279E0
1.834194980E0,-5.673027039E-1,-1.084270477E0,2.895126343E0
1.839199863E0,-5.235099792E-1,-1.449565887E0,3.203010559E0
1.844204746E0,-4.000091553E-1,-1.812858582E0,3.505554199E0
1.849209628E0,-2.146911621E-1,-2.104721069E0,3.793144226E0
1.854245029E0,2.723693848E-2,-2.211265564E0,4.013710022E0
1.859249912E0,2.859878540E-1,-2.106857300E0,4.132938385E0
1.864254794E0,6.098937988E-1,-1.457042694E0,4.059505463E0
1.869259677E0,8.889389038E-1,-3.332519531E-1,3.939075470E0
1.874264560E0,1.159572601E0,7.789230347E-1,3.827190399E0
1.879299960E0,1.391754150E0,1.694030762E0,3.599281311E0
1.884304843E0,1.378936768E0,2.217006683E0,3.495941162E0
1.889309726E0,1.165981293E0,1.803646088E0,3.366031647E0
1.894314609E0,9.325981140E-1,1.634349823E0,3.124237061E0
1.899319492E0,6.259155273E-1,1.051692963E0,3.077373505E0
1.904354892E0,4.969406128E-1,6.884002686E-1,2.836513519E0
1.909359775E0,3.413963318E-1,1.269721985E-1,3.074169159E0
1.914364658E0,2.232360840E-1,-9.670448303E-1,3.261623383E0
1.919369540E0,1.624870300E-1,-1.400566101E0,3.217964172E0
1.924374423E0,1.188278198E-1,-1.393222809E0,3.331851959E0
1.929379306E0,1.389884949E-1,-1.676540375E0,3.573780060E0
1.934414706E0,1.475334167E-1,-2.101516724E0,3.770847321E0
1.939419589E0,1.635551453E-1,-2.491378784E0,3.989143372E0
1.944424472E0,2.765083313E-1,-2.769489288E0,4.221458435E0
1.949429355E0,4.607582092E-1,-2.799263000E0,4.452571869E0
1.954434238E0,6.811904907E-1,-2.706604004E0,4.651775360E0
1.959439121E0,9.156417847E-1,-2.587375641E0,4.789161682E0
1.964474521E0,1.169185638E0,-2.439174652E0,4.914932251E0
1.969479404E0,1.435413361E0,-2.267742157E0,4.991569519E0
1.974484287E0,1.639957428E0,-1.943836212E0,5.004386902E0
1.979489169E0,1.731548309E0,-1.382541656E0,4.975681305E0
1.984494052E0,1.807250977E0,-8.839988708E-1,4.825344086E0
1.989498935E0,1.800842285E0,-4.173660278E-1,4.593162537E0
1.994503818E0,1.685752869E0,1.098823547E-1,4.295959473E0
1.999539218E0,1.515388489E0,5.701065063E-1,3.947620392E0
2.004544101E0,1.312980652E0,9.366035461E-1,3.600349426E0
2.009548984E0,1.095619202E0,1.200695038E0,3.282852173E0
2.014553867E0,8.591651917E-1,1.338214874E0,3.016624451E0
2.019589267E0,6.002807617E-1,1.332874298E0,2.805671692E0
2.024594150E0,3.563499451E-1,1.262512207E0,2.617149353E0
2.029629550E0,1.315116882E-1,1.133670807E0,2.464809418E0
2.034634433E0,-7.196426392E-2,9.205818176E-1,2.355060577E0
2.039639316E0,-2.391242981E-1,6.531524658E-1,2.281494141E0
2.044644199E0,-4.042816162E-1,3.858566284E-1,2.267742157E0
2.049649081E0,-5.789184570E-1,1.077461243E-1,2.278423309E0
2.054684482E0,-7.365989685E-1,-2.170944214E-1,2.292175293E0
2.059689365E0,-8.932113647E-1,-6.197738647E-1,2.318878174E0
2.064694247E0,-1.017913818E0,-1.076793671E0,2.307128906E0
2.069699130E0,-1.112709045E0,-1.523132324E0,2.247447968E0
2.074704013E0,-1.193618774E0,-1.779880524E0,2.184562683E0
2.079739414E0,-1.273460388E0,-1.950244904E0,2.061061859E0
2.084744296E0,-1.387481689E0,-2.149448395E0,1.936359406E0
2.089749179E0,-1.516456604E0,-2.413673401E0,1.764926910E0
2.094754062E0,-1.633548737E0,-2.700195312E0,1.487884521E0
2.099758945E0,-1.742229462E0,-2.922897339E0,1.181201935E0
2.104794345E0,-1.860523224E0,-3.026237488E0,9.073638916E-1
2.109799228E0,-1.974411011E0,-3.041057587E0,7.102966309E-1
2.114804111E0,-2.055454254E0,-3.028373718E0,5.164337158E-1
2.119808994E0,-2.098045349E0,-2.956943512E0,3.395271301E-1
2.124813876E0,-2.069339752E0,-2.847194672E0,2.628898621E-1
2.129849277E0,-1.991500854E0,-2.755603790E0,1.841163635E-1
2.134854160E0,-1.886024475E0,-2.759876251E0,4.980087280E-2
2.139859042E0,-1.737957001E0,-2.793922424E0,-1.259040833E-1
2.144863925E0,-1.519527435E0,-2.685375214E0,-2.707672119E-1
2.149868808E0,-1.283073425E0,-2.470149994E0,-4.305839539E-1
2.154904208E0,-1.086006165E0,-2.211265564E0,-6.447410583E-1
2.159909091E0,-9.390068054E-1,-1.917266846E0,-8.940124512E-1
2.164913974E0,-8.399391174E-1,-1.582813263E0,-1.152896881E0
2.169918857E0,-7.526206970E-1,-1.191883087E0,-1.389350891E0
2.174923740E0,-6.567573547E-1,-8.423423767E-1,-1.600303650E0
2.179928622E0,-5.767822266E-1,-6.623649597E-1,-1.773872375E0
2.184964023E0,-4.841232300E-1,-5.367279053E-1,-1.881484985E0
2.189968906E0,-3.467369080E-1,-3.992080688E-1,-1.928348541E0
2.194973789E0,-2.168273926E-1,-3.491401672E-1,-1.968803406E0
2.199978671E0,-1.177597046E-1,-3.992080688E-1,-2.014598846E0
2.204983554E0,-2.817153931E-2,-4.909324646E-1,-1.961460114E0
2.210018955E0,5.487442017E-2,-5.697059631E-1,-1.722736359E0
2.215023837E0,1.688957214E-1,-7.081604004E-1,-1.471328735E0
2.220028720E0,4.404640198E-1,-1.157703400E0,-1.396827698E0
2.225033603E0,7.526206970E-1,-1.673336029E0,-1.467056274E0
2.230038486E0,1.048755646E0,-2.107925415E0,-1.602439880E0
2.235073886E0,1.296958923E0,-2.437171936E0,-1.688690186E0
2.240078769E0,1.471729279E0,-2.629966736E0,-1.643962860E0
2.245083652E0,1.583480835E0,-2.666149139E0,-1.421260834E0
2.250088535E0,1.654911041E0,-2.573490143E0,-1.027126312E0
2.255093417E0,1.680412292E0,-2.448787689E0,-5.467414856E-1
2.260128818E0,1.659183502E0,-2.345447540E0,-7.690429688E-2
2.265133701E0,1.630344391E0,-2.325286865E0,2.821159363E-1
2.270138583E0,1.601638794E0,-2.400856018E0,5.068206787E-1
2.275143466E0,1.543025970E0,-2.459468842E0,6.431388855E-1
2.280148349E0,1.452503204E0,-2.460536957E0,7.220458984E-1
2.285183749E0,1.340618134E0,-2.422218323E0,7.432746887E-1
2.290188632E0,1.207504272E0,-2.356128693E0,7.220458984E-1
2.295193515E0,1.072254181E0,-2.311401367E0,6.932067871E-1
2.300198398E0,9.358024597E-1,-2.308197021E0,6.698417664E-1
2.305203281E0,7.802581787E-1,-2.324218750E0,6.846618652E-1
2.310238681E0,5.789184570E-1,-2.299652100E0,7.496833801E-1
2.315243564E0,3.285789490E-1,-2.174015045E0,8.583641052E-1
2.320248447E0,7.944107056E-2,-1.968402863E0,9.830665588E-1
2.325253330E0,-1.261711121E-1,-1.679744720E0,1.119384766E0
2.330258212E0,-2.956008911E-1,-1.335678101E0,1.266384125E0
2.335293613E0,-4.170989990E-1,-1.025657654E0,1.348361969E0
2.340298496E0,-4.916000366E-1,-7.454109192E-1,1.364383698E0
2.345303378E0,-5.140304565E-1,-4.738426208E-1,1.348361969E0
2.350308261E0,-4.873275757E-1,-2.224349976E-1,1.303634644E0
2.355313144E0,-4.021453857E-1,-2.216339111E-2,1.220588684E0
2.360348544E0,-2.690315247E-1,7.797241211E-2,1.102294922E0
2.365353427E0,-1.028060913E-1,1.152229309E-1,9.957504272E-1
2.370358310E0,7.623672485E-2,1.770401001E-1,9.223175049E-1
2.375363193E0,2.433967590E-1,2.686309814E-1,8.860015869E-1
2.380368076E0,3.797149658E-1,3.644943237E-1,9.030914307E-1
2.385403476E0,4.789161682E-1,4.359245300E-1,9.606361389E-1
2.390408359E0,5.225753784E-1,4.817199707E-1,1.000022888E0
2.395413242E0,5.012130737E-1,5.232429504E-1,1.021385193E0
2.400418124E0,4.235076904E-1,5.604934692E-1,1.030864716E0
2.405423007E0,3.041458130E-1,5.978775024E-1,1.021385193E0
2.410458408E0,1.539421082E-1,6.073570251E-1,9.681129456E-1
2.415463290E0,5.874633789E-3,5.594253540E-1,8.605003357E-1
2.420468173E0,-1.188278198E-1,4.455375671E-1,7.060241699E-1
2.425473056E0,-2.061462402E-1,2.867889404E-1,5.472755432E-1
2.430477939E0,-2.615547180E-1,1.184272766E-1,4.045486450E-1
2.435513339E0,-3.041458130E-1,-1.148223877E-2,2.746391296E-1
2.440518222E0,-3.499412537E-1,-8.718490601E-2,1.935958862E-1
2.445523105E0,-3.914642334E-1,-1.319122314E-1,1.903915405E-1
2.450527988E0,-4.361915588E-1,-2.042770386E-1,1.935958862E-1
2.455532871E0,-5.086898804E-1,-3.076171875E-1,1.680946350E-1
2.460568271E0,-5.949401855E-1,-4.291152954E-1,1.319122314E-1
2.465573154E0,-7.036209106E-1,-6.187057495E-1,1.020050049E-1
2.470578037E0,-8.570289612E-1,-9.148406982E-1,9.559631348E-2
2.475582919E0,-9.507560730E-1,-1.120452881E0,7.863998413E-2
2.480587802E0,-9.571647644E-1,-1.163043976E0,3.805160522E-2
2.485623203E0,-9.272575378E-1,-1.121520996E0,-4.539489746E-3
2.490628085E0,-8.793258667E-1,-1.046886444E0,-3.110885620E-2
2.495632968E0,-8.217811584E-1,-9.531593323E-1,-5.567550659E-2
2.500637851E0,-7.579612732E-1,-8.403396606E-1,-8.544921875E-2
2.505642734E0,-6.961441040E-1,-7.135009766E-1,-1.121520996E-1
2.510678134E0,-6.450080872E-1,-5.771827698E-1,-1.291084290E-1
2.515683017E0,-6.045532227E-1,-4.408645630E-1,-1.291084290E-1
2.520687900E0,-5.789184570E-1,-3.257751465E-1,-1.248359680E-1
2.525692783E0,-5.767822266E-1,-2.500724792E-1,-1.387214661E-1
2.530697665E0,-5.810546875E-1,-2.096176147E-1,-1.684951782E-1
2.535733066E0,-5.821228027E-1,-1.819801331E-1,-1.855850220E-1
2.540737949E0,-5.757141113E-1,-1.755714417E-1,-1.866531372E-1
2.545742831E0,-5.640983582E-1,-1.766395569E-1,-1.759719849E-1
2.550747714E0,-5.448722839E-1,-1.638221741E-1,-1.664924622E-1
2.555752597E0,-5.213737488E-1,-1.542091370E-1,-1.664924622E-1
2.560787997E0,-5.001449585E-1,-1.244354248E-1,-1.749038696E-1
2.565792880E0,-4.703712463E-1,-5.193710327E-2,-1.984024048E-1
2.570797763E0,-4.233741760E-1,3.751754761E-2,-2.292442322E-1
2.575802646E0,-3.595542908E-1,1.046752930E-1,-2.623558044E-1
2.580807529E0,-2.870559692E-1,1.610183716E-1,-2.803802490E-1
2.585812412E0,-1.943969727E-1,2.078819275E-1,-2.814483643E-1
2.590847812E0,-8.358001709E-2,2.249717712E-1,-2.634239197E-1
2.595852695E0,3.778457642E-2,1.887893677E-1,-2.249717712E-1
2.600857578E0,1.571464539E-1,8.224487305E-2,-1.898574829E-1
2.605862460E0,2.690315247E-1,-1.105499268E-1,-1.622200012E-1
2.610867343E0,3.488731384E-1,-3.672981262E-1,-1.590156555E-1
2.615902744E0,3.829193115E-1,-6.548881531E-1,-1.813125610E-1
2.620907626E0,3.531455994E-1,-9.159088135E-1,-2.260398865E-1
2.625912509E0,2.636909485E-1,-1.096954346E0,-2.793121338E-1
2.630917392E0,9.853363037E-2,-1.170520782E0,-3.176307678E-1
2.635922275E0,-1.336479187E-1,-1.130065918E0,-3.368568420E-1
2.640957675E0,-3.989410400E-1,-1.028862000E0,-3.794479370E-1
2.645962558E0,-6.726455688E-1,-8.924102783E-1,-4.956054688E-1
2.650967441E0,-9.411430359E-1,-6.890678406E-1,-6.468772888E-1
2.655972324E0,-1.191482544E0,-4.184341431E-1,-7.671737671E-1
2.660977206E0,-1.423664093E0,-7.757186890E-2,-8.610343933E-1
2.666012607E0,-1.659183502E0,3.837203979E-1,-9.504890442E-1
2.671017490E0,-1.823139191E0,8.940124512E-1,-1.036739349E0
2.676022372E0,-1.685752869E0,1.146488190E0,-1.124057770E0
2.681027255E0,-1.426868439E0,1.321125031E0,-1.142215729E0
2.686032138E0,-1.368255615E0,1.790962219E0,-1.107101440E0
2.691067539E0,-1.255435944E0,2.239437103E0,-1.110305786E0
2.696072421E0,-1.078529358E0,2.620754242E0,-1.134738922E0
2.701077304E0,-8.410072327E-1,2.914752960E0,-1.139011383E0
2.706082187E0,-5.746459961E-1,3.148136139E0,-1.109237671E0
2.711087070E0,-3.084182739E-1,3.386726379E0,-1.085739136E0
2.716122470E0,-7.396697998E-2,3.645610809E0,-1.071853638E0
2.721127353E0,1.145553589E-1,3.891677856E0,-1.085739136E0
2.726132236E0,2.466011047E-1,4.111042023E0,-1.130466461E0
2.731137119E0,3.275108337E-1,4.291152954E0,-1.188011169E0
2.736142001E0,3.456687927E-1,4.492492676E0,-1.233806610E0
2.741177402E0,2.988052368E-1,4.784355164E0,-1.287078857E0
2.746182285E0,2.104187012E-1,5.148582458E0,-1.388282776E0
2.751187167E0,1.464653015E-1,5.465011597E0,-1.524600983E0
2.756192050E0,1.379203796E-1,5.674896240E0,-1.686553955E0
2.761196933E0,1.783752441E-1,5.800533295E0,-1.880416870E0
2.766232333E0,2.849197388E-1,5.844192505E0,-2.065734863E0
2.771237216E0,4.532814026E-1,5.776100159E0,-2.223415375E0
2.776242099E0,6.482124329E-1,5.604534149E0,-2.348117828E0
2.781246982E0,8.527565002E-1,5.340442657E0,-2.454662323E0
2.786251865E0,1.023254395E0,5.032558441E0,-2.531299591E0
2.791287265E0,1.118049622E0,4.759788513E0,-2.572822571E0
2.796292148E0,1.121253967E0,4.530811310E0,-2.621822357E0
2.801297031E0,1.040210724E0,4.299564362E0,-2.702865601E0
2.806301914E0,9.049606323E-1,4.035472870E0,-2.782707214E0
2.811306796E0,7.291221619E-1,3.755226135E0,-2.844524384E0
2.816342197E0,4.851913452E-1,3.495407104E0,-2.910480499E0
2.821347080E0,1.869201660E-1,3.133182526E0,-2.955341339E0
2.826351962E0,-9.426116943E-2,2.704868317E0,-2.959613800E0
2.831356845E0,-3.211021423E-1,2.247982025E0,-2.945728302E0
2.836361728E0,-5.022811890E-1,1.847438812E0,-2.904205322E0
2.841397128E0,-6.769180298E-1,1.553440094E0,-2.863616943E0
2.846402011E0,-8.260536194E-1,1.321125031E0,-2.833843231E0
2.851406894E0,-9.603691101E-1,1.180534363E0,-2.834911346E0
2.856411777E0,-1.070117950E0,1.144351959E0,-2.849864960E0
2.861416660E0,-1.120052338E0,1.119785309E0,-2.853069305E0
2.866452060E0,-1.099891663E0,1.075057983E0,-2.810344696E0
2.871456943E0,-1.046619415E0,1.079330444E0,-2.752933502E0
2.876461826E0,-9.368705750E-1,1.131534576E0,-2.695388794E0
2.881466708E0,-8.037567139E-1,1.276397705E0,-2.633571625E0
2.886471591E0,-6.642341614E-1,1.487350464E0,-2.578163147E0
2.891506992E0,-5.224418640E-1,1.698303223E0,-2.528095245E0
2.896511874E0,-3.435325623E-1,1.783485413E0,-2.455730438E0
2.901516757E0,-2.114868164E-1,1.929416656E0,-2.316074371E0
2.906521640E0,-1.177597046E-1,2.110462189E0,-2.149982452E0
2.911526523E0,-1.293754578E-1,2.214870453E0,-1.964530945E0
2.916561923E0,-2.508735657E-1,2.155189514E0,-1.777076721E0
2.921566806E0,-4.010772705E-1,2.070007324E0,-1.573600769E0
2.926571689E0,-5.341911316E-1,1.969871521E0,-1.343555450E0
2.931576572E0,-6.152343750E-1,1.787757874E0,-1.035671234E0
2.936581455E0,-5.981445312E-1,1.495895386E0,-6.351280212E-1
2.941616855E0,-4.766464233E-1,1.290283203E0,-1.408576965E-1
2.946621738E0,-2.679634094E-1,1.267852783E0,3.534126282E-1
2.951626621E0,-1.228332520E-2,1.414852142E0,7.849311829E-1
2.956631503E0,2.775764465E-1,1.663055420E0,1.158771515E0
2.961636386E0,5.608940125E-1,1.937961578E0,1.475200653E0
2.966671787E0,8.112335205E-1,2.178688049E0,1.719131470E0
2.971676669E0,1.018981934E0,2.372550964E0,1.887359619E0
2.976681552E0,1.177597046E0,2.517414093E0,1.975879669E0
2.981686435E0,1.251163483E0,2.578163147E0,1.998176575E0
2.986691318E0,1.287345886E0,2.532367706E0,2.005653381E0
2.991726718E0,1.304435730E0,2.358665466E0,2.007789612E0
2.996731601E0,1.246891022E0,2.115802765E0,1.959857941E0
3.001736484E0,1.083869934E0,1.810054779E0,1.819267273E0
3.006741367E0,7.718467712E-1,1.378669739E0,1.531677246E0
3.011746249E0,3.638267517E-1,8.651733398E-1,1.130065918E0
3.016751132E0,-6.021499634E-2,3.368568420E-1,6.921386719E-1
3.021786533E0,-3.722381592E-1,-1.712989807E-1,3.576850891E-1
3.026791415E0,-4.725074768E-1,-5.025482178E-1,1.510047913E-1
3.031796298E0,-4.085540771E-1,-5.771827698E-1,4.018783569E-2
3.036801181E0,-2.369880676E-1,-3.961372375E-1,-3.538131714E-2
3.041806064E0,-2.283096313E-2,-7.757186890E-2,-6.942749023E-2
3.046841464E0,1.911926270E-1,1.759719849E-1,-4.072189331E-2
3.051846347E0,3.936004639E-1,3.154945374E-1,2.323150635E-2
3.056851230E0,5.651664734E-1,3.612899780E-1,1.169586182E-1
3.061856113E0,6.695747375E-1,2.750396729E-1,2.309799194E-1
3.066860996E0,7.036209106E-1,1.547431946E-1,3.363227844E-1
3.071896396E0,6.843948364E-1,4.285812378E-2,4.428672791E-1
3.076901279E0,6.535530090E-1,-8.611679077E-2,5.600929260E-1
3.081906162E0,6.173706055E-1,-2.000045776E-1,6.815910339E-1
3.086911044E0,5.662345886E-1,-2.416610718E-1,8.115005493E-1
3.091915927E0,4.798507690E-1,-2.181625366E-1,9.446144104E-1
3.096951328E0,3.775787354E-1,-1.926612854E-1,1.076793671E0
3.101956210E0,2.806472778E-1,-1.777076721E-1,1.190681458E0
3.106961093E0,2.082824707E-1,-1.755714417E-1,1.289749146E0
3.111965976E0,1.678276062E-1,-2.149581909E-1,1.364383698E0
3.116970859E0,1.475334167E-1,-2.842521667E-1,1.401634216E0
3.122006259E0,1.518058777E-1,-3.555488586E-1,1.383609772E0
3.127011142E0,1.763725281E-1,-4.546165466E-1,1.308975220E0
3.132016025E0,2.200317383E-1,-5.782508850E-1,1.188545227E0
3.137020908E0,2.243041992E-1,-7.550239563E-1,1.045818329E0
3.142025790E0,1.869201660E-1,-9.169769287E-1,8.924102783E-1
3.147061191E0,1.389884949E-1,-1.062908173E0,7.411384583E-1
3.152066074E0,9.426116943E-2,-1.229133606E0,6.219100952E-1
3.157070956E0,6.662368774E-2,-1.397361755E0,5.355262756E-1
3.162075839E0,5.380630493E-2,-1.596565247E0,4.802513123E-1
3.167080722E0,5.807876587E-2,-1.837425232E0,4.556846619E-1
3.172116122E0,4.953384399E-2,-2.195243835E0,4.631614685E-1
3.177121005E0,-1.976013184E-2,-2.668285370E0,5.132293701E-1
3.182125888E0,-1.325798035E-1,-3.146533966E0,5.952072144E-1
3.187130771E0,-2.626228333E-1,-3.589668274E0,7.038879395E-1
3.192135654E0,-4.233741760E-1,-3.971118927E0,8.029556274E-1
3.197171054E0,-5.960083008E-1,-4.386615753E0,9.510231018E-1
3.202175937E0,-7.153701782E-1,-4.854183197E0,1.116180420E0
3.207180820E0,-8.005523682E-1,-5.256862640E0,1.238613129E0
3.212185703E0,-8.249855042E-1,-5.641384125E0,1.439952850E0
3.217190585E0,-7.494163513E-1,-6.115493774E0,1.758518219E0
3.222225986E0,-5.373954773E-1,-6.555423737E0,2.131290436E0
3.227230869E0,-4.053497314E-1,-6.878261566E0,2.164402008E0
3.232235751E0,-4.393959045E-1,-6.875057220E0,2.217674255E0
3.237240634E0,-4.447364807E-1,-6.596946716E0,2.343311310E0
3.242245517E0,-3.296470642E-1,-6.139926910E0,2.368946075E0
3.247280917E0,-1.751708984E-1,-5.458202362E0,2.342243195E0
3.252285800E0,-3.244400024E-2,-4.645366669E0,2.335834503E0
3.257290683E0,1.017379761E-1,-3.775119781E0,2.348651886E0
3.262295566E0,2.433967590E-1,-2.948398590E0,2.333698273E0
3.267300449E0,3.829193115E-1,-2.239971161E0,2.302856445E0
3.272335849E0,5.108261108E-1,-1.669063568E0,2.294311523E0
3.277340732E0,6.184387207E-1,-1.190814972E0,2.300720215E0
3.282345615E0,6.610298157E-1,-8.136367798E-1,2.300720215E0
3.287350497E0,6.674385071E-1,-5.494117737E-1,2.301788330E0
3.292355380E0,6.152343750E-1,-2.042770386E-1,2.359333038E0
3.297390781E0,5.544853210E-1,3.644943237E-2,2.377490997E0
3.302395664E0,4.798507690E-1,1.738357544E-1,2.348651886E0
3.307400546E0,4.000091553E-1,1.365852356E-1,2.345447540E0
3.312405429E0,3.584861755E-1,-6.368637085E-2,2.365741730E0
3.317410312E0,2.870559692E-1,-1.937294006E-1,2.375354767E0
3.322445712E0,1.635551453E-1,-2.010726929E-1,2.379627228E0
3.327450595E0,2.189636230E-2,-1.989364624E-1,2.331562042E0
3.332455478E0,-9.746551514E-2,-1.958656311E-1,2.225151062E0
3.337460361E0,-1.635551453E-1,-1.989364624E-1,2.078151703E0
3.342465244E0,-1.965332031E-1,-1.447296143E-1,1.985359192E0
3.347500644E0,-1.997375488E-1,-3.925323486E-2,2.027015686E0
3.352505527E0,-1.976013184E-1,4.499435425E-2,2.073879242E0
3.357510410E0,-2.146911621E-1,1.194953918E-1,2.113265991E0
3.362515292E0,-2.795791626E-1,2.516746521E-1,2.131290436E0
3.367520175E0,-3.670310974E-1,4.327201843E-1,2.100448608E0
3.372555576E0,-4.809188843E-1,6.522178650E-1,2.068538666E0
3.377560458E0,-6.236457825E-1,8.822631836E-1,2.054653168E0
3.382565341E0,-7.665061951E-1,1.092147827E0,2.067470551E0
3.387570224E0,-8.761215210E-1,1.181602478E0,2.097244263E0
3.392575107E0,-8.463478088E-1,8.769226074E-1,2.043972015E0
3.397610507E0,-8.112335205E-1,4.241752625E-1,1.955585480E0
3.402615390E0,-8.324623108E-1,5.874633789E-2,1.900177002E0
3.407620273E0,-9.006881714E-1,-2.500724792E-1,1.793632507E0
3.412625156E0,-1.103096008E0,-4.439353943E-1,1.528472900E0
3.417630039E0,-1.429004669E0,-6.261825562E-1,1.055431366E0
3.422665439E0,-1.626071930E0,-1.174793243E0,8.572959900E-1
3.427670322E0,-1.716594696E0,-1.911926270E0,9.777259827E-1
3.432675205E0,-1.733684540E0,-2.661876678E0,1.041545868E0
3.437680087E0,-1.680412292E0,-3.284053802E0,9.638404846E-1
3.442684970E0,-1.566524506E0,-3.669643402E0,8.722496033E-1
3.447720371E0,-1.413116455E0,-3.916778564E0,8.040237427E-1
3.452725253E0,-1.234073639E0,-4.013710022E0,7.209777832E-1
3.457730136E0,-1.053028107E0,-3.902893066E0,6.005477905E-1
3.462735019E0,-9.038925171E-1,-3.435325623E0,4.385948181E-1
3.467739902E0,-7.749176025E-1,-2.703399658E0,2.511405945E-1
3.472744785E0,-6.567573547E-1,-1.915130615E0,6.155014038E-2
3.477780185E0,-5.203056335E-1,-1.334609985E0,-1.654243469E-1
3.482785068E0,-3.200340271E-1,-1.016044617E0,-3.347206116E-1
3.487789951E0,-8.358001709E-2,-8.189773560E-1,-4.263114929E-1
3.492794833E0,1.145553589E-1,-6.069564819E-1,-4.678344727E-1
3.497799716E0,2.104187012E-1,-3.321838379E-1,-4.710388184E-1
3.502835117E0,2.275085449E-1,-2.750396729E-2,-4.615592957E-1
3.507839999E0,2.114868164E-1,2.057456970E-1,-4.551506042E-1
3.512844882E0,1.954650879E-1,3.049468994E-1,-4.423332214E-1
3.517849765E0,1.815795898E-1,2.761077881E-1,-4.391288757E-1
3.522854648E0,1.773071289E-1,1.365852356E-1,-4.615592957E-1
3.527890048E0,1.933288574E-1,-9.359359741E-2,-4.913330078E-1
3.532894931E0,2.369880676E-1,-3.790473938E-1,-5.020141602E-1
3.537899814E0,3.020095825E-1,-6.922721863E-1,-4.913330078E-1
3.542904697E0,3.691673279E-1,-1.003227234E0,-4.721069336E-1
3.547909580E0,4.256439209E-1,-1.253566742E0,-4.444694519E-1
3.552944980E0,4.809188843E-1,-1.408042908E0,-4.114913940E-1
3.557949863E0,5.608940125E-1,-1.525268555E0,-3.730392456E-1
3.562954746E0,6.801223755E-1,-1.721267700E0,-3.145599365E-1
3.567959628E0,8.090972900E-1,-2.045040131E0,-1.973342896E-1
3.572964511E0,9.220504761E-1,-2.364673615E0,-1.829147339E-2
3.577999912E0,9.965515137E-1,-2.504196167E0,1.276397705E-1
3.583004794E0,9.965515137E-1,-2.322082520E0,1.680946350E-1
3.588009677E0,9.475517273E-1,-1.959857941E0,1.903915405E-1
3.593014560E0,8.932113647E-1,-1.558246613E0,1.702308655E-1
3.598019443E0,8.463478088E-1,-1.190814972E0,7.757186890E-2
3.603054843E0,7.643699646E-1,-8.189773560E-1,-2.897262573E-2
3.608059726E0,6.642341614E-1,-5.420684814E-1,-6.942749023E-2
3.613064609E0,5.086898804E-1,-2.468681335E-1,-7.797241211E-2
3.618069492E0,2.104187012E-1,2.132225037E-1,-5.567550659E-2
3.623074374E0,-1.124191284E-1,5.499458313E-1,-4.539489746E-3
3.628109775E0,-3.169631958E-1,5.104255676E-1,5.086898804E-2
3.633114658E0,-3.989410400E-1,2.100181580E-1,1.041412354E-1
3.638119540E0,-4.265785217E-1,-1.020050049E-1,1.180267334E-1
3.643124423E0,-4.361915588E-1,-2.842521667E-1,8.918762207E-2
3.648129306E0,-4.383277893E-1,-3.247070312E-1,3.911972046E-2
3.653164706E0,-4.287147522E-1,-2.789115906E-1,-1.615524292E-2
3.658169589E0,-4.053497314E-1,-2.277755737E-1,-5.567550659E-2
3.663174472E0,-3.648948669E-1,-2.074813843E-1,-8.117675781E-2
3.668179355E0,-3.126907349E-1,-1.915931702E-1,-9.185791016E-2
3.673184238E0,-2.572822571E-1,-1.648902893E-1,-7.690429688E-2
3.678219638E0,-1.986694336E-1,-1.787757874E-1,-5.140304565E-2
3.683224521E0,-1.400566101E-1,-2.149581909E-1,-3.004074097E-2
3.688229404E0,-7.503509521E-2,-2.532768250E-1,-1.722335815E-2
3.693234287E0,-1.441955566E-2,-2.842521667E-1,-1.829147339E-2
3.698239169E0,4.846572876E-2,-2.969360352E-1,-3.324508667E-2
3.703274570E0,1.252365112E-1,-3.012084961E-1,-3.751754761E-2
3.708279453E0,2.008056641E-1,-2.757072449E-1,-2.042770386E-2
3.713284335E0,2.604866028E-1,-2.543449402E-1,2.002716064E-2
3.718289218E0,2.817153931E-1,-2.479362488E-1,7.436752319E-2
3.723294101E0,2.583503723E-1,-2.235031128E-1,1.255035400E-1
3.728329501E0,2.221679688E-1,-2.021408081E-1,1.478004456E-1
3.733334384E0,1.837158203E-1,-2.235031128E-1,1.478004456E-1
3.738339267E0,1.518058777E-1,-3.247070312E-1,1.488685608E-1
3.743344150E0,1.156234741E-1,-4.855918884E-1,1.584815979E-1
3.748349033E0,6.235122681E-2,-6.730461121E-1,1.745033264E-1
3.753384433E0,1.014709473E-2,-7.827949524E-1,2.000045776E-1
3.758389316E0,-2.189636230E-2,-6.730461121E-1,2.299118042E-1
3.763394199E0,-6.942749023E-3,-3.396606445E-1,2.213668823E-1
3.768399081E0,5.380630493E-2,-2.429962158E-2,1.595497131E-1
3.773403964E0,1.539421082E-1,1.429939270E-1,9.559631348E-2
3.778439365E0,2.679634094E-1,2.078819275E-1,6.795883179E-2
3.783444247E0,3.584861755E-1,2.707672119E-1,6.048202515E-2
3.788449130E0,4.297828674E-1,4.476737976E-1,9.239196777E-2
3.793454013E0,5.076217651E-1,6.094932556E-1,1.552772522E-1
3.798458896E0,6.120300293E-1,5.904006958E-1,2.085494995E-1
3.803494296E0,7.025527954E-1,3.976058960E-1,2.309799194E-1
3.808499179E0,7.504844666E-1,4.926681519E-2,2.618217468E-1
3.813504062E0,7.164382935E-1,-2.192306519E-1,3.076171875E-1
3.818508945E0,6.588935852E-1,-9.559631348E-2,3.555488586E-1
3.823513828E0,6.642341614E-1,2.271080017E-1,3.960037231E-1
3.828549228E0,7.323265076E-1,5.339241028E-1,4.269790649E-1
3.833554111E0,8.271217346E-1,8.033561707E-1,4.471397400E-1
3.838558994E0,9.293937683E-1,1.043148041E0,4.460716248E-1
3.843563876E0,1.017913818E0,1.235942841E0,4.291152954E-1
3.848568759E0,1.099891663E0,1.391487122E0,4.120254517E-1
3.853604160E0,1.181869507E0,1.540622711E0,3.895950317E-1
3.858609042E0,1.273593903E0,1.702442169E0,3.672981262E-1
3.863613925E0,1.381072998E0,1.870803833E0,3.715705872E-1
3.868618808E0,1.497230530E0,2.046642303E0,3.970718384E-1
3.873623691E0,1.602706909E0,2.272415161E0,4.216384888E-1
3.878659091E0,1.666660309E0,2.521686554E0,4.343223572E-1
3.883663974E0,1.687889099E0,2.687911987E0,4.631614685E-1
3.888668857E0,1.694297791E0,2.727298737E0,5.376625061E-1
3.893673740E0,1.695365906E0,2.667617798E0,6.580924988E-1
3.898678622E0,1.667728424E0,2.547321320E0,7.890701294E-1
3.903714023E0,1.515388489E0,2.403392792E0,8.615684509E-1
3.908718906E0,1.131801605E0,2.288436890E0,8.690452576E-1
3.913723789E0,5.502128601E-1,2.133960724E0,8.562278748E-1
3.918728671E0,5.060195923E-2,1.962394714E0,8.040237427E-1
3.923733554E0,-2.050781250E-1,1.750507355E0,7.092285156E-1
3.928738437E0,-2.178955078E-1,1.397895813E0,5.643653870E-1
3.933773837E0,-9.078979492E-3,9.610366821E-1,4.056167603E-1
3.938778720E0,3.317832947E-1,6.404685974E-1,2.831840515E-1
3.943783603E0,6.674385071E-1,5.307197571E-1,2.361869812E-1
3.948788486E0,9.135055542E-1,5.743789673E-1,2.138900757E-1
3.953793369E0,1.063709259E0,6.595611572E-1,1.584815979E-1
3.958828769E0,1.133937836E0,6.862640381E-1,8.291244507E-2
3.963833652E0,1.126461029E0,5.925369263E-1,1.041412354E-2
3.968838535E0,1.039142609E0,4.348564148E-1,-6.208419800E-2
3.973843417E0,9.081649780E-1,5.179023743E-1,-1.036071777E-1
3.978848300E0,7.952117920E-1,8.758544922E-1,-5.994796753E-2
3.983883701E0,7.291221619E-1,1.304035187E0,9.559631348E-2
3.988888583E0,7.291221619E-1,1.814327240E0,2.810478210E-1
3.993893466E0,7.675743103E-1,2.243709564E0,4.152297974E-1
3.998898349E0,8.155059814E-1,2.505664825E0,4.492759705E-1
4.003903232E0,8.463478088E-1,2.562141418E0,4.002761841E-1
4.008938632E0,8.410072327E-1,2.459869385E0,3.405952454E-1
4.013943515E0,8.037567139E-1,2.318210602E0,2.937316895E-1
4.018948398E0,7.430076599E-1,2.217006683E0,2.361869812E-1
4.023953281E0,6.685066223E-1,2.161598206E0,1.648902893E-1
4.028958164E0,5.906677246E-1,2.053985596E0,8.077621460E-2
4.033993564E0,5.183029175E-1,1.843166351E0,-2.149581909E-2
4.038998447E0,4.564857483E-1,1.506443024E0,-1.547431946E-1
4.044003330E0,3.968048096E-1,1.024990082E0,-2.942657471E-1
4.049008212E0,3.158950806E-1,4.945373535E-1,-3.986740112E-1
4.054013095E0,2.168273926E-1,3.217697144E-2,-4.337882996E-1
4.059048496E0,1.231002808E-1,-3.480720520E-1,-4.072189331E-1
4.064053378E0,5.060195923E-2,-6.602287292E-1,-3.794479370E-1
4.069058261E0,5.340576172E-4,-8.904075623E-1,-3.933334351E-1
4.074063144E0,-2.817153931E-2,-1.014976501E0,-4.050827026E-1
4.079068027E0,-5.060195923E-2,-1.061840057E0,-3.922653198E-1
4.084103427E0,-8.037567139E-2,-1.061840057E0,-3.890609741E-1
4.089108310E0,-1.102828979E-1,-1.029930115E0,-3.922653198E-1
4.094113193E0,-1.411247253E-1,-1.051158905E0,-3.730392456E-1
4.099118076E0,-1.965332031E-1,-1.187610626E0,-3.582191467E-1
4.104122958E0,-2.827835083E-1,-1.354770660E0,-3.475379944E-1
4.109158359E0,-3.807830811E-1,-1.465587616E0,-3.283119202E-1
4.114163242E0,-4.660987854E-1,-1.481609344E0,-3.229713440E-1
4.119168124E0,-5.012130737E-1,-1.336746216E0,-3.709030151E-1
4.124173007E0,-4.554176331E-1,-9.606361389E-1,-4.721069336E-1
4.129177890E0,-3.062820435E-1,-4.738426208E-1,-5.786514282E-1
4.134213290E0,-8.785247803E-2,3.337860107E-3,-6.532859802E-1
4.139218173E0,1.304435730E-1,4.049491882E-1,-7.140350342E-1
4.144223056E0,3.105545044E-1,8.215141296E-1,-7.341957092E-1
4.149227939E0,4.458045959E-1,1.175193787E0,-7.160377502E-1
4.154232822E0,5.309867859E-1,1.407375336E0,-6.787872314E-1
4.159268222E0,6.066894531E-1,1.643962860E0,-6.319236755E-1
4.164273105E0,7.355308533E-1,2.013530731E0,-5.839920044E-1
4.169277988E0,8.155059814E-1,1.936893463E0,-5.904006958E-1
4.174282871E0,7.526206970E-1,1.431941986E0,-6.447410583E-1
4.179287753E0,6.163024902E-1,1.116580963E0,-6.426048279E-1
4.184323154E0,5.225753784E-1,1.169853210E0,-5.754470825E-1
4.189328037E0,5.012130737E-1,1.259307861E0,-5.126953125E-1
4.194332919E0,5.256462097E-1,1.284942627E0,-4.753112793E-1
4.199337802E0,5.555534363E-1,1.252899170E0,-4.667663574E-1
4.204342685E0,5.737113953E-1,1.182670593E0,-4.678344727E-1
4.209378085E0,5.821228027E-1,1.091079712E0,-4.498100281E-1
4.214382968E0,5.938720703E-1,1.041011810E0,-4.252433777E-1
4.219387851E0,6.749153137E-1,1.193351746E0,-3.560829163E-1
4.224392734E0,7.813262939E-1,1.139011383E0,-4.166984558E-1
4.229397617E0,8.463478088E-1,9.440803528E-1,-5.574226379E-1
4.234433017E0,9.049606323E-1,9.291267395E-1,-6.021499634E-1
4.239437900E0,9.880065918E-1,1.008968353E0,-5.871963501E-1
4.244442783E0,1.086006165E0,1.043148041E0,-5.679702759E-1
4.249447665E0,1.159572601E0,1.079330444E0,-5.499458313E-1
4.254452548E0,1.213912964E0,1.119785309E0,-5.221748352E-1
4.259487949E0,1.255435944E0,1.159172058E0,-4.891967773E-1
4.264462314E0,1.277732849E0,1.170921326E0,-4.615592957E-1
4.269467197E0,1.283073425E0,1.078262329E0,-4.519462585E-1
4.274502597E0,1.262912750E0,9.237861633E-1,-4.401969910E-1
4.279507480E0,1.201095581E0,7.575607300E-1,-4.284477234E-1
4.284542880E0,1.107368469E0,6.340599060E-1,-4.369926453E-1
4.289517246E0,1.005096436E0,5.797195435E-1,-4.689025879E-1
4.294552646E0,9.113693237E-1,5.381965637E-1,-5.189704895E-1
4.299557529E0,8.208465576E-1,4.902648926E-1,-5.797195435E-1
4.304562412E0,7.323265076E-1,4.391288757E-1,-6.361961365E-1
4.309597812E0,6.524848938E-1,4.038810730E-1,-7.288551331E-1
4.314602695E0,5.917358398E-1,3.847885132E-1,-8.929443359E-1
4.319607578E0,5.694389343E-1,3.400611877E-1,-1.157169342E0
4.324642978E0,5.737113953E-1,5.307197571E-1,-1.268920898E0
4.329617343E0,5.960083008E-1,9.301948547E-1,-1.167716980E0
4.334622226E0,6.163024902E-1,1.262512207E0,-1.049556732E0
4.339657626E0,6.343269348E-1,1.528873444E0,-9.653091431E-1
4.344662509E0,6.578254700E-1,1.810054779E0,-8.811950684E-1
4.349667392E0,6.811904907E-1,2.057189941E0,-7.906723022E-1
4.354672275E0,7.057571411E-1,2.242641449E0,-6.990814209E-1
4.359677158E0,6.982803345E-1,2.374687195E0,-5.818557739E-1
4.364682040E0,6.248474121E-1,2.435436249E0,-4.220390320E-1
4.369686923E0,4.883956909E-1,2.427959442E0,-2.527427673E-1
4.374722324E0,3.052139282E-1,2.326755524E0,-9.719848633E-2
4.379727206E0,7.837295532E-2,2.084960938E0,2.536773682E-2
4.384762607E0,-1.773071289E-1,1.674804688E0,1.222991943E-1
4.389767490E0,-4.361915588E-1,1.097488403E0,1.830482483E-1
4.394772372E0,-6.279182434E-1,6.062889099E-1,2.106857300E-1
4.399777255E0,-7.164382935E-1,3.783798218E-1,2.192306519E-1
4.404812656E0,-7.365989685E-1,2.910614014E-1,2.309799194E-1
4.409787021E0,-7.259178162E-1,1.919937134E-1,2.245712280E-1
4.414822421E0,-7.110977173E-1,-3.284454346E-2,1.893234253E-1
4.419827304E0,-7.057571411E-1,-5.377960205E-1,1.467323303E-1
4.424862705E0,-6.908035278E-1,-1.218452454E0,1.467323303E-1
4.429837070E0,-6.567573547E-1,-1.451702118E0,2.202987671E-1
4.434841953E0,-6.747817993E-1,-1.759586334E0,2.340507507E-1
4.439877353E0,-7.515525818E-1,-1.915130615E0,2.543449402E-1
4.444882236E0,-8.655738831E-1,-1.816062927E0,3.054809570E-1
4.449917636E0,-9.422111511E-1,-1.684017181E0,3.161621094E-1
4.454922519E0,-9.518241882E-1,-1.630744934E0,2.628898621E-1
4.459896884E0,-9.060287476E-1,-1.632881165E0,1.351165771E-1
4.464932285E0,-8.239173889E-1,-1.694564819E0,-6.675720215E-3
4.469937167E0,-8.026885986E-1,-1.752109528E0,-1.472663879E-1
4.474942050E0,-9.197807312E-1,-1.751041412E0,-2.506065369E-1
4.479946933E0,-1.129665375E0,-1.754245758E0,-2.623558044E-1
4.484951816E0,-1.339550018E0,-1.801109314E0,-2.174949646E-1
4.489987216E0,-1.478004456E0,-1.923675537E0,-1.600837708E-1
4.494992099E0,-1.534481049E0,-2.120742798E0,-7.476806641E-2
4.499996982E0,-1.566524506E0,-2.310333252E0,7.209777832E-3
4.505001865E0,-1.569595337E0,-2.378559113E0,3.070831299E-2
4.510006747E0,-1.502571106E0,-2.276287079E0,8.010864258E-4
4.515042148E0,-1.384277344E0,-2.069606781E0,-4.392623901E-2
4.520047031E0,-1.203231812E0,-1.742496490E0,-7.263183594E-2
4.525051914E0,-9.965515137E-1,-1.351566315E0,-9.933471680E-2
4.530056796E0,-8.613014221E-1,-1.082134247E0,-1.269721985E-1
4.535061679E0,-8.069610596E-1,-9.351348877E-1,-1.429939270E-1
4.540097080E0,-7.994842529E-1,-9.030914307E-1,-1.461982727E-1
4.545101962E0,-8.133697510E-1,-9.319305420E-1,-1.365852356E-1
4.550106845E0,-8.208465576E-1,-9.510231018E-1,-1.280403137E-1
4.555111728E0,-8.208465576E-1,-9.478187561E-1,-1.515388489E-1
4.560116611E0,-8.292579651E-1,-9.362030029E-1,-2.239036560E-1
4.565152011E0,-8.058929443E-1,-8.904075623E-1,-3.432655334E-1
4.570156894E0,-7.451438904E-1,-7.539558411E-1,-4.849243164E-1
4.575161777E0,-6.588935852E-1,-5.335235596E-1,-5.807876587E-1
4.580166660E0,-5.767822266E-1,-3.332519531E-1,-6.201744080E-1
4.585171542E0,-5.203056335E-1,-1.372528076E-1,-6.394004822E-1
4.590206943E0,-4.937362671E-1,1.259040833E-1,-6.159019470E-1
4.595211826E0,-4.819869995E-1,3.879928589E-1,-5.679702759E-1
4.600216708E0,-4.703712463E-1,5.904006958E-1,-5.126953125E-1
4.605221591E0,-4.575538635E-1,7.416725159E-1,-4.423332214E-1
4.610226474E0,-4.383277893E-1,8.587646484E-1,-3.614234924E-1
4.615261874E0,-4.308509827E-1,9.227180481E-1,-2.814483643E-1
4.620266757E0,-4.383277893E-1,9.131050110E-1,-2.005386353E-1
4.625271640E0,-4.532814026E-1,8.215141296E-1,-1.654243469E-1
4.630276523E0,-4.554176331E-1,7.022857666E-1,-1.759719849E-1
4.635281406E0,-4.319190979E-1,5.871963501E-1,-1.823806763E-1
4.640316806E0,-3.957366943E-1,4.550170898E-1,-1.684951782E-1
4.645321689E0,-3.552818298E-1,3.038787842E-1,-1.376533508E-1
4.650326572E0,-3.041458130E-1,1.599502563E-1,-8.544921875E-2
4.655331455E0,-2.487373352E-1,4.179000854E-2,-1.722335815E-2
4.660336337E0,-1.901245117E-1,-4.980087280E-2,6.368637085E-2
4.665371738E0,-1.432609558E-1,-9.452819824E-2,1.435279846E-1
4.670376621E0,-1.145553589E-1,-9.880065918E-2,2.202987671E-1
4.675381503E0,-1.102828979E-1,-7.329940796E-2,3.065490723E-1
4.680386386E0,-1.102828979E-1,1.722335815E-2,3.747749329E-1
4.685391269E0,-1.145553589E-1,1.312446594E-1,4.173660278E-1
4.690426669E0,-1.261711121E-1,1.973342896E-1,4.482078552E-1
4.695431552E0,-1.464653015E-1,2.016067505E-1,4.685020447E-1
4.700436435E0,-1.678276062E-1,1.781082153E-1,4.759788513E-1
4.705441318E0,-1.954650879E-1,1.536750793E-1,4.353904724E-1
4.710446201E0,-2.327156067E-1,1.323127747E-1,3.555488586E-1
4.715481601E0,-2.785110474E-1,4.179000854E-2,2.980041504E-1
4.720486484E0,-3.211021423E-1,-1.148223877E-1,3.065490723E-1
4.725491367E0,-3.638267517E-1,-2.969360352E-1,3.683662415E-1
4.730496249E0,-4.255104065E-1,-5.345916748E-1,4.535484314E-1
4.735501132E0,-5.118942261E-1,-8.403396606E-1,5.494117737E-1
4.740536533E0,-6.141662598E-1,-1.203498840E0,6.431388855E-1
4.745541415E0,-7.195091248E-1,-1.548633575E0,7.070922852E-1
4.750546298E0,-8.335304260E-1,-1.836357117E0,7.357978821E-1
4.755551181E0,-9.464836121E-1,-2.021675110E0,7.263183594E-1
4.760556064E0,-1.045551300E0,-2.120742798E0,6.719779968E-1
4.765591464E0,-1.108436584E0,-2.133560181E0,5.686378479E-1
4.770596347E0,-1.135005951E0,-2.100448608E0,4.269790649E-1
4.775601230E0,-1.130733490E0,-2.096176147E0,3.108215332E-1
4.780606113E0,-1.114845276E0,-2.168674469E0,2.618217468E-1
4.785610996E0,-1.104164124E0,-2.291107178E0,2.607536316E-1
4.790646396E0,-1.078529358E0,-2.345447540E0,2.851867676E-1
4.795651279E0,-1.022052765E0,-2.276287079E0,3.182983398E-1
4.800656162E0,-9.475517273E-1,-2.123947144E0,3.523445129E-1
4.805661044E0,-8.655738831E-1,-1.923675537E0,3.694343567E-1
4.810665927E0,-8.026885986E-1,-1.718063354E0,3.790473938E-1
4.815670810E0,-7.845306396E-1,-1.545429230E0,3.779792786E-1
4.820706210E0,-7.791900635E-1,-1.395225525E0,3.737068176E-1
4.825711093E0,-7.654380798E-1,-1.252498627E0,3.801155090E-1
4.830715976E0,-7.355308533E-1,-1.092681885E0,3.769111633E-1
4.835720859E0,-6.822586060E-1,-8.807945251E-1,3.321838379E-1
4.840725742E0,-6.492805481E-1,-7.689094543E-1,2.947998047E-1
4.845761142E0,-6.578254700E-1,-8.285903931E-1,2.926635742E-1
4.850766025E0,-6.653022766E-1,-8.977508545E-1,2.862548828E-1
4.855770908E0,-6.524848938E-1,-9.297943115E-1,2.309799194E-1
4.860775790E0,-6.439399719E-1,-9.670448303E-1,1.680946350E-1
4.865780673E0,-6.353950500E-1,-1.017112732E0,1.499366760E-1
4.870816074E0,-6.247138977E-1,-1.055431366E0,1.659584045E-1
4.875820956E0,-6.225776672E-1,-1.078929901E0,1.777076721E-1
4.880825839E0,-6.332588196E-1,-1.085338593E0,1.670265198E-1
4.885830722E0,-6.353950500E-1,-1.077861786E0,1.351165771E-1
4.890835605E0,-6.173706055E-1,-1.060771942E0,8.491516113E-2
4.895871005E0,-6.013488770E-1,-1.051158905E0,4.980087280E-2
4.900875888E0,-5.757141113E-1,-9.649085999E-1,7.209777832E-3
4.905880771E0,-5.309867859E-1,-8.850669861E-1,-1.829147339E-2
4.910885654E0,-5.534172058E-1,-8.872032166E-1,3.177642822E-2
4.915890537E0,-6.130981445E-1,-9.873390198E-1,8.077621460E-2
4.920925937E0,-6.524848938E-1,-1.218452454E0,9.559631348E-2
4.925930820E0,-6.663703918E-1,-1.461315155E0,7.757186890E-2
4.930935703E0,-7.089614868E-1,-1.767063141E0,4.232406616E-2
4.935940585E0,-7.205772400E-1,-1.934356689E0,-2.149581909E-2
4.940945468E0,-7.110977173E-1,-1.954517365E0,-3.324508667E-2
4.945980869E0,-7.301902771E-1,-1.942768097E0,8.277893066E-3
4.950985751E0,-7.791900635E-1,-1.979084015E0,6.689071655E-2
4.955990634E0,-8.367347717E-1,-1.994972229E0,1.244354248E-1
4.960995517E0,-8.846664429E-1,-1.925811768E0,1.680946350E-1
4.966000400E0,-9.156417847E-1,-1.817131042E0,1.871871948E-1
4.971035800E0,-9.145736694E-1,-1.739425659E0,1.787757874E-1
4.976040683E0,-8.846664429E-1,-1.684017181E0,1.595497131E-1
4.981045566E0,-8.463478088E-1,-1.616859436E0,1.648902893E-1
4.986050449E0,-8.080291748E-1,-1.549701691E0,1.520729065E-1
4.991055331E0,-8.090972900E-1,-1.631813049E0,1.137542725E-1
4.996090732E0,-7.717132568E-1,-1.754245758E0,2.964019775E-2
5.001095615E0,-6.897354126E-1,-1.887493134E0,-1.046752930E-1
5.006100497E0,-5.757141113E-1,-1.956653595E0,-1.312446594E-1
5.011105380E0,-4.329872131E-1,-1.882152557E0,-9.719848633E-2
5.016110263E0,-3.275108337E-1,-1.868267059E0,-8.758544922E-2
5.021145664E0,-2.551460266E-1,-1.844768524E0,-5.140304565E-2
5.026150546E0,-2.040100098E-1,-1.834220886E0,-4.926681519E-2
5.031155429E0,-1.667594910E-1,-1.870403290E0,-5.994796753E-2
5.036160312E0,-1.464653015E-1,-1.944904327E0,-8.224487305E-2
5.041165195E0,-1.464653015E-1,-2.047176361E0,-1.226997375E-1
5.046200595E0,-1.464653015E-1,-2.022743225E0,-1.259040833E-1
5.051205478E0,-1.730346680E-1,-1.952381134E0,-1.355171204E-1
5.056210361E0,-2.210998535E-1,-1.991901398E0,-1.590156555E-1
5.061215244E0,-2.444648743E-1,-2.030220032E0,-1.749038696E-1
5.066220126E0,-2.763748169E-1,-2.033424377E0,-1.984024048E-1
5.071255527E0,-3.169631958E-1,-1.974811554E0,-2.196311951E-1
5.076260410E0,-3.711700439E-1,-1.911926270E0,-2.132225037E-1
5.081265292E0,-4.361915588E-1,-1.892700195E0,-2.185630798E-1
5.086270175E0,-4.980087280E-1,-1.841564178E0,-2.452659607E-1
5.091275058E0,-5.662345886E-1,-1.779880524E0,-2.953338623E-1
5.096310458E0,-6.492805481E-1,-1.729812622E0,-3.582191467E-1
5.101315341E0,-7.387351990E-1,-1.680812836E0,-4.188346863E-1
5.106320224E0,-8.281898499E-1,-1.599769592E0,-4.827880859E-1
5.111325107E0,-9.135055542E-1,-1.483745575E0,-5.243110657E-1
5.116329990E0,-9.646415710E-1,-1.367588043E0,-5.146980286E-1
5.121365390E0,-9.954833984E-1,-1.330337524E0,-4.540824890E-1
5.126370273E0,-1.049823761E0,-1.294021606E0,-4.156303406E-1
5.131375156E0,-1.178665161E0,-1.432609558E0,-5.221748352E-1
5.136380039E0,-1.354503632E0,-1.625404358E0,-6.851959229E-1
5.141384921E0,-1.552639008E0,-1.714859009E0,-8.311271667E-1
5.146420322E0,-1.784820557E0,-1.735153198E0,-9.526252747E-1
5.151425205E0,-2.011795044E0,-1.637153625E0,-1.009101868E0
5.156430087E0,-2.204589844E0,-1.600837708E0,-1.004829407E0
5.161434970E0,-2.318477631E0,-1.707382202E0,-9.547615051E-1
5.166439853E0,-2.367477417E0,-1.958789825E0,-8.950805664E-1
5.171475253E0,-2.386703491E0,-2.156925201E0,-8.013534546E-1
5.176480136E0,-2.376022339E0,-2.224082947E0,-6.575584412E-1
5.181485019E0,-2.331295013E0,-2.181491852E0,-4.604911804E-1
5.186489902E0,-2.256793976E0,-2.068538666E0,-2.771759033E-1
5.191494785E0,-2.205657959E0,-1.927947998E0,-1.301765442E-1
5.196530185E0,-2.170410156E0,-1.836357117E0,-2.149581909E-2
5.201535068E0,-2.143840790E0,-1.868267059E0,2.857208252E-2
5.206539951E0,-2.065067291E0,-1.649837494E0,9.346008301E-2
5.211544833E0,-1.998977661E0,-1.101226807E0,1.445960999E-1
5.216549716E0,-2.099113464E0,-4.770469666E-1,1.041412354E-1
5.221554599E0,-2.270545959E0,2.149581909E-2,7.209777832E-3
5.226559482E0,-2.212066650E0,1.526069641E-1,-9.933471680E-2
5.231564365E0,-1.926479340E0,3.324508667E-2,-1.068115234E-1
5.236569247E0,-1.561183929E0,-2.857208252E-2,1.148223877E-2
5.241574130E0,-1.256504059E0,1.335144043E-3,9.025573730E-2
5.246609531E0,-1.058368683E0,-9.880065918E-2,9.986877441E-2
5.251614414E0,-9.156417847E-1,-2.320480347E-1,1.371192932E-1
5.256619296E0,-7.984161377E-1,-3.161621094E-1,1.841163635E-1
5.261624179E0,-7.057571411E-1,-3.970718384E-1,1.914596558E-1
5.266659580E0,-6.482124329E-1,-4.961395264E-1,1.542091370E-1
5.271694980E0,-6.130981445E-1,-5.675697327E-1,9.239196777E-2
5.276699863E0,-5.917358398E-1,-5.771827698E-1,1.148223877E-2
5.281704746E0,-5.885314941E-1,-5.260467529E-1,-7.690429688E-2
5.286709628E0,-5.960083008E-1,-4.237747192E-1,-1.547431946E-1
5.291714511E0,-6.098937988E-1,-2.682304382E-1,-1.941299438E-1
5.296719394E0,-6.098937988E-1,-5.086898804E-2,-1.909255981E-1
5.301724277E0,-5.960083008E-1,1.930618286E-1,-1.866531372E-1
5.306759677E0,-5.746459961E-1,4.337882996E-1,-2.142906189E-1
5.311764560E0,-5.491447449E-1,6.616973877E-1,-2.664947510E-1
5.316769443E0,-5.161666870E-1,8.705139160E-1,-3.315162659E-1
5.321774326E0,-5.001449585E-1,1.035671234E0,-4.050827026E-1
5.326809726E0,-5.001449585E-1,1.158103943E0,-4.795837402E-1
5.331814609E0,-4.958724976E-1,1.234874725E0,-5.627632141E-1
5.336819492E0,-4.990768433E-1,1.259307861E0,-6.383323669E-1
5.341824374E0,-5.192375183E-1,1.208171844E0,-6.777191162E-1
5.346829257E0,-5.405998230E-1,1.111240387E0,-6.841278076E-1
5.351864658E0,-5.683708191E-1,9.888076782E-1,-6.607627869E-1
5.356869540E0,-5.789184570E-1,8.854675293E-1,-6.447410583E-1
5.361874423E0,-6.163024902E-1,6.745147705E-1,-6.180381775E-1
5.366879306E0,-7.184410095E-1,2.825164795E-1,-5.606269836E-1
5.371884189E0,-8.356666565E-1,-1.648902893E-1,-5.084228516E-1
5.376919589E0,-9.719848633E-1,-6.996154785E-1,-4.870605469E-1
5.381924472E0,-1.111640930E0,-1.281337738E0,-5.137634277E-1
5.386929355E0,-1.190414429E0,-1.755313873E0,-5.914688110E-1
5.391934238E0,-1.197891235E0,-2.073879242E0,-6.745147705E-1
5.396939121E0,-1.115913391E0,-2.182559967E0,-7.203102112E-1
5.401974521E0,-9.347343445E-1,-2.053585052E0,-7.213783264E-1
5.406979404E0,-6.961441040E-1,-1.803245544E0,-7.012176514E-1
5.411984287E0,-4.447364807E-1,-1.494293213E0,-6.980133057E-1
5.416989169E0,-1.890563965E-1,-1.124725342E0,-7.352638245E-1
5.421994052E0,7.089614868E-2,-7.156372070E-1,-8.236503601E-1
5.427029453E0,2.977371216E-1,-3.407287598E-1,-9.601020813E-1
5.432034335E0,4.575538635E-1,-3.925323486E-2,-1.155033112E0
5.437039218E0,5.831909180E-1,2.239036560E-1,-1.421260834E0
5.442044101E0,6.854629517E-1,4.753112793E-1,-1.737689972E0
5.447048984E0,7.707786560E-1,7.160377502E-1,-2.058391571E0
5.452084384E0,8.080291748E-1,8.758544922E-1,-2.344913483E0
5.457089267E0,7.770538330E-1,9.120368958E-1,-2.551593781E0
5.462094150E0,6.918716431E-1,8.268547058E-1,-2.703933716E0
5.467099033E0,5.960083008E-1,7.012176514E-1,-2.808208466E0
5.472103915E0,5.183029175E-1,6.522178650E-1,-2.819957733E0
5.477139316E0,4.778480530E-1,7.203102112E-1,-2.752933502E0
5.482144199E0,5.012130737E-1,9.045600891E-1,-2.684707642E0
5.487149081E0,5.576896667E-1,1.118717194E0,-2.607936859E0
5.492153964E0,5.705070496E-1,1.197624207E0,-2.531299591E0
5.497158847E0,4.830551147E-1,1.028194427E0,-2.438640594E0
5.502194247E0,3.638267517E-1,7.502174377E-1,-2.340641022E0
5.507199130E0,2.348518372E-1,4.263114929E-1,-2.230892181E0
5.512204013E0,1.188278198E-1,1.620864868E-1,-2.017803192E0
5.517208896E0,5.060195923E-2,1.081466675E-2,-1.760120392E0
5.522213779E0,3.030776978E-2,-4.873275757E-2,-1.506576538E0
5.527249179E0,4.312515259E-2,-5.086898804E-2,-1.263580322E0
5.532254062E0,8.892059326E-2,-2.536773682E-2,-1.058101654E0
5.537258945E0,1.432609558E-1,-2.643585205E-2,-8.599662781E-1
5.542263828E0,1.710319519E-1,-1.052093506E-1,-6.596946716E-1
5.547268710E0,1.592826843E-1,-3.140258789E-1,-4.710388184E-1
5.552304111E0,1.188278198E-1,-6.379318237E-1,-3.165626526E-1
5.557308994E0,7.944107056E-2,-9.916114807E-1,-2.069473267E-1
5.562313876E0,5.807876587E-2,-1.310043335E0,-1.078796387E-1
5.567318759E0,5.273818970E-2,-1.560382843E0,-2.256393433E-2
5.572323642E0,5.273818970E-2,-1.736221313E0,4.339218140E-2
5.577359042E0,4.312515259E-2,-1.850109100E0,9.025573730E-2
5.582363925E0,3.564834595E-2,-1.886425018E0,1.244354248E-1
5.587368808E0,2.923965454E-2,-1.839427948E0,1.638221741E-1
5.592408689E0,3.778457642E-2,-1.711654663E0,2.128219604E-1
5.597413572E0,6.021499634E-2,-1.510314941E0,2.650260925E-1
5.602448972E0,9.960174561E-2,-1.236610413E0,3.129577637E-1
5.607453855E0,1.603507996E-1,-9.180450439E-1,3.459358215E-1
5.612458738E0,2.253723145E-1,-5.867958069E-1,3.769111633E-1
5.617463620E0,2.891921997E-1,-2.831840515E-1,4.227066040E-1
5.622468503E0,3.691673279E-1,2.576828003E-2,4.706382751E-1
5.627503904E0,4.725074768E-1,3.634262085E-1,5.100250244E-1
5.632508787E0,5.874633789E-1,6.766510010E-1,5.408668518E-1
5.637513669E0,7.025527954E-1,9.472846985E-1,5.547523499E-1
5.642518552E0,8.378028870E-1,1.199760437E0,5.462074280E-1
5.647523435E0,9.880065918E-1,1.451034546E0,5.153656006E-1
5.652558835E0,1.158504486E0,1.727008820E0,4.929351807E-1
5.657563718E0,1.347026825E0,1.992301941E0,4.940032959E-1
5.662568601E0,1.547298431E0,2.220211029E0,5.185699463E-1
5.667573484E0,1.727275848E0,2.382164001E0,5.793190002E-1
5.672578367E0,1.860523224E0,2.396049500E0,6.910705566E-1
5.677613767E0,1.953182220E0,2.277755737E0,8.423423767E-1
5.682618650E0,2.020339966E0,2.082824707E0,1.005363464E0
5.687623533E0,2.057590485E0,1.813259125E0,1.156635284E0
5.692628415E0,2.065067291E0,1.499099731E0,1.287612915E0
5.697633298E0,2.062931061E0,1.175193787E0,1.400566101E0
5.702668699E0,2.047977448E0,8.439445496E-1,1.496429443E0
5.707673581E0,2.013931274E0,5.211067200E-1,1.586952209E0
5.712678464E0,1.960659027E0,2.345848083E-1,1.667995453E0
5.717683347E0,1.879615784E0,-8.277893066E-3,1.753177643E0
5.722688230E0,1.773204803E0,-2.128219604E-1,1.854381561E0
5.727723630E0,1.649570465E0,-3.833198547E-1,1.955585480E0
5.732728513E0,1.500434875E0,-5.388641357E-1,2.050380707E0
5.737733396E0,1.321525574E0,-6.942749023E-1,2.139835358E0
5.742738279E0,1.126461029E0,-8.498191833E-1,2.227287292E0
5.747743162E0,9.261894226E-1,-1.003227234E0,2.307128906E0
5.752748044E0,7.376670837E-1,-1.167316437E0,2.374286652E0
5.757783445E0,5.459403992E-1,-1.327133179E0,2.443447113E0
5.762788328E0,3.499412537E-1,-1.488018036E0,2.514877319E0
5.767793210E0,1.783752441E-1,-1.640224457E0,2.571353912E0
5.772798093E0,3.351211548E-2,-1.721267700E0,2.617149353E0
5.777833494E0,-7.930755615E-2,-1.726608276E0,2.652263641E0
5.782838376E0,-1.432609558E-1,-1.645565033E0,2.643718719E0
5.787843259E0,-1.826477051E-1,-1.453838348E0,2.590446472E0
5.792848142E0,-2.305793762E-1,-1.194019318E0,2.530765533E0
5.797853025E0,-2.785110474E-1,-8.829307556E-1,2.478694916E0
5.802857908E0,-3.190994263E-1,-5.504798889E-1,2.414741516E0
5.807893308E0,-3.584861755E-1,-1.851844788E-1,2.333698273E0
5.812898191E0,-4.010772705E-1,1.866531372E-1,2.243175507E0
5.817903074E0,-4.458045959E-1,5.114936829E-1,2.133426666E0
5.822907956E0,-4.894638062E-1,7.928085327E-1,2.001380920E0
5.827912839E0,-5.213737488E-1,1.039943695E0,1.858654022E0
5.832948240E0,-5.352592468E-1,1.259307861E0,1.719131470E0
5.837953122E0,-5.416679382E-1,1.424465179E0,1.588020325E0
5.842958005E0,-5.331230164E-1,1.557579041E0,1.476268768E0
5.847962888E0,-5.076217651E-1,1.671600342E0,1.385612488E0
5.852967771E0,-4.745101929E-1,1.741962433E0,1.308975220E0
5.858003171E0,-4.393959045E-1,1.765327454E0,1.247158051E0
5.863008054E0,-3.989410400E-1,1.740894318E0,1.196022034E0
5.868012937E0,-3.467369080E-1,1.664123535E0,1.158771515E0
5.873017820E0,-2.923965454E-1,1.538486481E0,1.131134033E0
5.878022703E0,-2.412605286E-1,1.355171204E0,1.103363037E0
5.883058103E0,-2.029418945E-1,1.114444733E0,1.068248749E0
5.888062986E0,-1.943969727E-1,8.332633972E-1,1.017112732E0
5.893067869E0,-2.231025696E-1,5.371284485E-1,9.627723694E-1
5.898072751E0,-2.763748169E-1,2.643585205E-1,9.084320068E-1
5.903077634E0,-3.584861755E-1,2.790451050E-2,8.423423767E-1
5.908113035E0,-4.734420776E-1,-1.606178284E-1,7.657051086E-1
5.913117917E0,-6.098937988E-1,-3.193664551E-1,6.741142273E-1
5.918122800E0,-7.451438904E-1,-4.535484314E-1,5.697059631E-1
5.923127683E0,-8.868026733E-1,-5.632972717E-1,4.663658142E-1
5.928132566E0,-1.032733917E0,-6.612968445E-1,3.779792786E-1
5.933167966E0,-1.168117523E0,-7.316589355E-1,3.001403809E-1
5.938172849E0,-1.302299500E0,-7.571601868E-1,2.224349976E-1
5.943177732E0,-1.434345245E0,-7.369995117E-1,1.510047913E-1
5.948182615E0,-1.565456390E0,-6.709098816E-1,8.291244507E-2
5.953187497E0,-1.690025330E0,-5.900001526E-1,1.041412354E-2
5.958222898E0,-1.799774170E0,-5.228424072E-1,-3.431320190E-2
5.963227781E0,-1.875343323E0,-5.207061768E-1,-6.208419800E-2
5.968232663E0,-1.924343109E0,-5.900001526E-1,-9.506225586E-2
5.973237546E0,-1.943569183E0,-7.369995117E-1,-1.237678528E-1
5.978242429E0,-1.930751801E0,-9.383392334E-1,-1.643562317E-1
5.983277829E0,-1.890296936E0,-1.175861359E0,-2.101516724E-1
5.988252195E0,-1.841297150E0,-1.425132751E0,-2.506065369E-1
5.993257078E0,-1.779479980E0,-1.693496704E0,-2.835845947E-1
5.998292478E0,-1.713523865E0,-1.992835999E0,-3.038787842E-1
6.003327878E0,-1.664524078E0,-2.286968231E0,-3.197669983E-1
6.008332761E0,-1.622867584E0,-2.570285797E0,-3.272438049E-1
6.013337644E0,-1.580276489E0,-2.828102112E0,-3.113555908E-1
6.018312009E0,-1.550502777E0,-3.044261932E0,-2.814483643E-1
6.023316892E0,-1.536617279E0,-3.205146790E0,-2.548789978E-1
6.028352292E0,-1.536617279E0,-3.293533325E0,-2.281761169E-1
6.033387693E0,-1.544094086E0,-3.299942017E0,-2.048110962E-1
6.038392576E0,-1.550502777E0,-3.217964172E0,-1.674270630E-1
6.043397458E0,-1.547298431E0,-3.057079315E0,-1.226997375E-1
6.048402341E0,-1.532344818E0,-2.821693420E0,-8.010864258E-2
6.053407224E0,-1.518459320E0,-2.536239624E0,-5.674362183E-2
6.058412107E0,-1.499366760E0,-2.231559753E0,-3.110885620E-2
6.063447507E0,-1.462116241E0,-1.914062500E0,-1.201629639E-2
6.068452390E0,-1.412048340E0,-1.607246399E0,-7.743835449E-3
6.073457273E0,-1.357707977E0,-1.335678101E0,-1.508712769E-2
6.078462156E0,-1.296958923E0,-1.101226807E0,-4.392623901E-2
6.083497556E0,-1.226596832E0,-8.872032166E-1,-8.651733398E-2
6.088502439E0,-1.154232025E0,-6.964111328E-1,-1.365852356E-1
6.093507322E0,-1.084938049E0,-5.335235596E-1,-1.845169067E-1
6.098512204E0,-1.022052765E0,-3.970718384E-1,-2.206993103E-1
6.103547605E0,-9.815979004E-1,-2.842521667E-1,-2.463340759E-1
6.108552488E0,-9.571647644E-1,-1.841163635E-1,-2.643585205E-1
6.113557370E0,-9.422111511E-1,-1.030731201E-1,-2.793121338E-1
6.118562253E0,-9.347343445E-1,-3.818511963E-2,-2.899932861E-1
6.123567136E0,-9.261894226E-1,1.188278198E-2,-2.953338623E-1
6.128572019E0,-9.187126160E-1,5.140304565E-2,-2.964019775E-1
6.133607419E0,-9.187126160E-1,8.331298828E-2,-2.974700928E-1
6.138612302E0,-9.261894226E-1,1.237678528E-1,-2.964019775E-1
6.143617185E0,-9.443473816E-1,1.845169067E-1,-2.996063232E-1
6.148652585E0,-9.698486328E-1,2.558135986E-1,-2.985382080E-1
6.153626951E0,-9.976196289E-1,3.347206116E-1,-2.899932861E-1
6.158631833E0,-1.029529572E0,4.188346863E-1,-2.686309814E-1
6.163667234E0,-1.059436798E0,4.988098145E-1,-2.484703064E-1
6.168672117E0,-1.095619202E0,5.818557739E-1,-2.356529236E-1
6.173676999E0,-1.131801605E0,6.552886963E-1,-2.239036560E-1
6.178681882E0,-1.154232025E0,6.969451904E-1,-2.164268494E-1
6.183717283E0,-1.165981293E0,7.074928284E-1,-2.090835571E-1
6.188722165E0,-1.170120239E0,7.053565979E-1,-2.080154419E-1
6.193727048E0,-1.188278198E0,6.958770752E-1,-2.132225037E-1
6.198762449E0,-1.213912964E0,6.766510010E-1,-2.142906189E-1
6.203736814E0,-1.247959137E0,6.479454041E-1,-2.122879028E-1
6.208772214E0,-1.287345886E0,6.052207947E-1,-2.153587341E-1
6.213777097E0,-1.331005096E0,5.531501770E-1,-2.228355408E-1
6.218781980E0,-1.376800537E0,5.104255676E-1,-2.356529236E-1
6.223786863E0,-1.425800323E0,4.870605469E-1,-2.474021912E-1
6.228822263E0,-1.479072571E0,4.785156250E-1,-2.591514587E-1
6.233827146E0,-1.528072357E0,4.774475098E-1,-2.782440186E-1
6.238832029E0,-1.583480835E0,4.795837402E-1,-2.964019775E-1
6.243836912E0,-1.646366119E0,4.988098145E-1,-3.176307678E-1
6.248841794E0,-1.720867157E0,5.626296997E-1,-3.400611877E-1
6.253846677E0,-1.810455322E0,6.563568115E-1,-3.646278381E-1
6.258882078E0,-1.906318665E0,7.534217834E-1,-3.901290894E-1
6.263886960E0,-1.994705200E0,8.321952820E-1,-4.231071472E-1
6.268891843E0,-2.079887390E0,8.779907227E-1,-4.646301270E-1
6.273927244E0,-2.160930634E0,9.045600891E-1,-4.988098145E-1
6.278901609E0,-2.234363556E0,9.036254883E-1,-5.168342590E-1
6.283906492E0,-2.303657532E0,8.769226074E-1,-5.189704895E-1
6.288911374E0,-2.366409302E0,8.332633972E-1,-5.105590820E-1
6.293946775E0,-2.421817780E0,7.928085327E-1,-5.020141602E-1
6.298951658E0,-2.475090027E0,7.725143433E-1,-5.009460449E-1
6.303956540E0,-2.530498505E0,7.778549194E-1,-4.977416992E-1
6.308961423E0,-2.591247559E0,7.981491089E-1,-5.009460449E-1
6.313966306E0,-2.659473419E0,8.332633972E-1,-5.105590820E-1
6.318971189E0,-2.732906342E0,8.747863770E-1,-5.243110657E-1
6.323976072E0,-2.792587280E0,9.109687805E-1,-5.499458313E-1
6.328980954E0,-2.831974030E0,9.451484680E-1,-5.818557739E-1
6.333985837E0,-2.856540680E0,9.706497192E-1,-6.096267700E-1
6.338990720E0,-2.866153717E0,9.920120239E-1,-6.372642517E-1
6.344026120E0,-2.858676910E0,1.007900238E0,-6.681060791E-1
6.349031003E0,-2.811813354E0,1.011104584E0,-6.990814209E-1
6.354035886E0,-2.721157074E0,9.642410278E-1,-7.363319397E-1
6.359040769E0,-2.598724365E0,9.045600891E-1,-7.799911499E-1
6.364076169E0,-2.460269928E0,8.747863770E-1,-8.193778992E-1
6.369081052E0,-2.322750092E0,8.726501465E-1,-8.535575867E-1
6.374116453E0,-2.198181152E0,8.950805664E-1,-8.801269531E-1
6.379121335E0,-2.080955505E0,9.120368958E-1,-8.950805664E-1
6.384126218E0,-1.974411011E0,9.173774719E-1,-9.078979492E-1
6.389161619E0,-1.882820129E0,9.291267395E-1,-9.111022949E-1
6.394166501E0,-1.811523438E0,9.440803528E-1,-9.014892578E-1
6.399201902E0,-1.753978729E0,9.556961060E-1,-8.854675293E-1
6.404176267E0,-1.696434021E0,9.621047974E-1,-8.621025085E-1
6.409181150E0,-1.638889313E0,9.706497192E-1,-8.450126648E-1
6.414216550E0,-1.594161987E0,9.759902954E-1,-8.247184753E-1
6.419221433E0,-1.556911469E0,9.791946411E-1,-8.002853394E-1
6.424226316E0,-1.517391205E0,9.759902954E-1,-7.789230347E-1
6.429231199E0,-1.480140686E0,9.599685669E-1,-7.641029358E-1
6.434266599E0,-1.442890167E0,9.248542786E-1,-7.576942444E-1
6.439271482E0,-1.409912109E0,8.801269531E-1,-7.544898987E-1
6.444276365E0,-1.392822266E0,8.386039734E-1,-7.470130920E-1
6.449281247E0,-1.390686035E0,8.097648621E-1,-7.395362854E-1
6.454286130E0,-1.397094727E0,8.161735535E-1,-7.309913635E-1
6.459291013E0,-1.402435303E0,8.386039734E-1,-7.235145569E-1
6.464326413E0,-1.408843994E0,8.737182617E-1,-7.213783264E-1
6.469331296E0,-1.416320801E0,9.280586243E-1,-7.224464417E-1
6.474336179E0,-1.425800323E0,1.005764008E0,-7.320594788E-1
6.479341062E0,-1.437549591E0,1.097488403E0,-7.566261292E-1
6.484345945E0,-1.443958282E0,1.204967499E0,-7.885360718E-1
6.489350828E0,-1.448230743E0,1.316852570E0,-8.098983765E-1
6.494386228E0,-1.449298859E0,1.415920258E0,-8.119010925E-1
6.499391111E0,-1.438617706E0,1.490554810E0,-8.045578003E-1
6.504395994E0,-1.416320801E0,1.534214020E0,-7.906723022E-1
6.509400876E0,-1.396026611E0,1.553440094E0,-7.725143433E-1
6.514405759E0,-1.380004883E0,1.547031403E0,-7.608985901E-1
6.519441160E0,-1.361980438E0,1.524600983E0,-7.544898987E-1
6.524446042E0,-1.352367401E0,1.485214233E0,-7.470130920E-1
6.529450925E0,-1.354503632E0,1.425533295E0,-7.352638245E-1
6.534455808E0,-1.356639862E0,1.377601624E0,-7.256507874E-1
6.539460691E0,-1.367321014E0,1.339282990E0,-7.022857666E-1
6.544465574E0,-1.389617920E0,1.302967072E0,-6.638336182E-1
6.549500974E0,-1.414184570E0,1.289215088E0,-6.191062927E-1
6.554505857E0,-1.439685822E0,1.306171417E0,-5.669021606E-1
6.559510740E0,-1.463184357E0,1.339282990E0,-5.157661438E-1
6.564546140E0,-1.489753723E0,1.379737854E0,-4.763793945E-1
6.569551023E0,-1.516456604E0,1.435146332E0,-4.508781433E-1
6.574555906E0,-1.537685394E0,1.492691040E0,-4.476737976E-1
6.579591306E0,-1.550502777E0,1.519260406E0,-4.721069336E-1
6.584596189E0,-1.550502777E0,1.521396637E0,-5.137634277E-1
6.589601072E0,-1.533412933E0,1.492691040E0,-5.648994446E-1
6.594605954E0,-1.503639221E0,1.436214447E0,-6.096267700E-1
6.599610837E0,-1.467456818E0,1.347827911E0,-6.458091736E-1
6.604615720E0,-1.419525146E0,1.220989227E0,-6.798553467E-1
6.609620603E0,-1.351299286E0,1.041011810E0,-7.171058655E-1
6.614656003E0,-1.290550232E0,8.033561707E-1,-7.598304749E-1
6.619660886E0,-1.244754791E0,5.478096008E-1,-8.045578003E-1
6.624665769E0,-1.213912964E0,3.006744385E-1,-8.471488953E-1
6.629670652E0,-1.185073853E0,6.195068359E-2,-9.025573730E-1
6.634675535E0,-1.148891449E0,-1.488685608E-1,-9.685134888E-1
6.639710935E0,-1.098823547E0,-3.236389160E-1,-1.038875580E0
6.644715818E0,-1.041278839E0,-4.524803162E-1,-1.096420288E0
6.649720701E0,-9.848022461E-1,-5.483436584E-1,-1.132602692E0
6.654725583E0,-9.368705750E-1,-6.058883667E-1,-1.161441803E0
6.659730466E0,-8.857345581E-1,-6.442070007E-1,-1.184806824E0
6.664765867E0,-8.249855042E-1,-6.580924988E-1,-1.192283630E0
6.669770749E0,-7.802581787E-1,-6.400680542E-1,-1.196556091E0
6.674775632E0,-7.483482361E-1,-5.921363831E-1,-1.195487976E0
6.679780515E0,-7.259178162E-1,-5.303192139E-1,-1.192283630E0
6.684785398E0,-7.046890259E-1,-4.802513123E-1,-1.186943054E0
6.689820798E0,-6.642341614E-1,-4.610252380E-1,-1.189079285E0
6.694825681E0,-6.066894531E-1,-4.823875427E-1,-1.201896667E0
6.699830564E0,-5.161666870E-1,-5.750465393E-1,-1.220989227E0
6.704835447E0,-4.265785217E-1,-6.677055359E-1,-1.235942841E0
6.709840329E0,-3.670310974E-1,-6.794548035E-1,-1.238079071E0
6.714845212E0,-3.105545044E-1,-6.122970581E-1,-1.233806610E0
6.719880613E0,-2.519416809E-1,-5.207061768E-1,-1.225261688E0
6.724885495E0,-1.847839355E-1,-4.024124146E-1,-1.200828552E0
6.729890378E0,-9.960174561E-2,-2.405929565E-1,-1.158237457E0
6.734895261E0,9.078979492E-3,1.508712769E-2,-1.112442017E0
6.739900144E0,1.231002808E-1,3.186988831E-1,-1.067581177E0
6.744935544E0,2.827835083E-1,6.148338318E-1,-1.019649506E0
6.749940427E0,5.097579956E-1,9.387397766E-1,-9.440803528E-1
6.754945310E0,7.834625244E-1,1.256103516E0,-8.332633972E-1
6.759950193E0,1.146755219E0,1.540622711E0,-6.713104248E-1
6.764955076E0,1.573867798E0,1.771736145E0,-4.795837402E-1
6.769990476E0,1.996841431E0,1.890029907E0,-2.675628662E-1
6.774995359E0,2.414474487E0,1.939029694E0,-4.072189331E-2
6.780000242E0,2.769222260E0,2.012462616E0,1.851844788E-1
6.785005124E0,3.012084961E0,2.193641663E0,3.895950317E-1
6.790010007E0,3.134517670E0,2.420482635E0,5.504798889E-1
6.795045408E0,3.211288452E0,2.536640167E0,6.399345398E-1
6.800050290E0,3.252811432E0,2.565345764E0,6.240463257E-1
6.805055173E0,3.252811432E0,2.520618439E0,5.121612549E-1
6.810060056E0,3.183517456E0,2.433300018E0,3.289794922E-1
6.815064939E0,3.050403595E0,2.305393219E0,1.435279846E-1
6.820100339E0,2.876701355E0,2.182960510E0,3.805160522E-2
6.825105222E0,2.648792267E0,2.260665894E0,-7.690429688E-2
6.830110105E0,2.313270569E0,2.565345764E0,-2.463340759E-1
6.835114988E0,1.821136475E0,2.807140350E0,-4.295158386E-1
6.840119870E0,1.272525787E0,2.862548828E0,-5.403327942E-1
6.845155271E0,6.695747375E-1,2.709140778E0,-5.871963501E-1
6.850160154E0,9.960174561E-2,2.413005829E0,-5.616950989E-1
6.855165037E0,-3.158950806E-1,2.117938995E0,-4.956054688E-1
6.860169919E0,-5.395317078E-1,1.879348755E0,-4.721069336E-1
6.865174802E0,-5.938720703E-1,1.617259979E0,-4.721069336E-1
6.870210203E0,-5.470085144E-1,1.372261047E0,-4.530143738E-1
6.875215085E0,-4.468727112E-1,1.239147186E0,-3.986740112E-1
6.880219968E0,-3.328514099E-1,1.242351532E0,-2.718353271E-1
6.885224851E0,-2.583503723E-1,1.220989227E0,-1.526069641E-1
6.890260251E0,-2.348518372E-1,1.145420074E0,-1.153564453E-1
6.895234617E0,-2.210998535E-1,1.095352173E0,-1.536750793E-1
6.900270017E0,-1.911926270E-1,1.090011597E0,-2.345848083E-1
6.905305417E0,-1.443290710E-1,1.104831696E0,-3.368568420E-1
6.910310300E0,-9.853363037E-2,1.110172272E0,-4.466056824E-1
6.915284665E0,-6.555557251E-2,1.121921539E0,-5.446052551E-1
6.920289548E0,-3.992080688E-2,1.153964996E0,-6.287193298E-1
6.925324949E0,-1.548767090E-2,1.208171844E0,-6.905364990E-1
6.930329831E0,2.670288086E-3,1.274261475E0,-7.160377502E-1
6.935334714E0,2.723693848E-2,1.357307434E0,-7.118988037E-1
6.940339597E0,6.021499634E-2,1.450099945E0,-6.862640381E-1
6.945344480E0,9.960174561E-2,1.535282135E0,-6.458091736E-1
6.950379880E0,1.315116882E-1,1.600170135E0,-6.021499634E-1
6.955384763E0,1.528739929E-1,1.629009247E0,-5.563545227E-1
6.960389646E0,1.667594910E-1,1.607646942E0,-5.062866211E-1
6.965394529E0,1.847839355E-1,1.535282135E0,-4.540824890E-1
6.970429929E0,2.018737793E-1,1.427669525E0,-3.997421265E-1
6.975434812E0,2.189636230E-1,1.289215088E0,-3.368568420E-1
6.980439695E0,2.275085449E-1,1.130466461E0,-2.729034424E-1
6.985475095E0,2.253723145E-1,9.631729126E-1,-2.164268494E-1
6.990479978E0,2.178955078E-1,8.247184753E-1,-1.749038696E-1
6.995454343E0,1.997375488E-1,7.235145569E-1,-1.547431946E-1
7.000489744E0,1.699638367E-1,6.638336182E-1,-1.536750793E-1
7.005494626E0,1.400566101E-1,6.542205811E-1,-1.643562317E-1
7.010499509E0,1.220321655E-1,6.948089600E-1,-1.802444458E-1
7.015504392E0,1.177597046E-1,7.703781128E-1,-1.866531372E-1
7.020539792E0,1.113510132E-1,8.375358582E-1,-1.887893677E-1
7.025544675E0,9.426116943E-2,8.737182617E-1,-1.845169067E-1
7.030549558E0,7.303237915E-2,8.758544922E-1,-1.706314087E-1
7.035554441E0,5.807876587E-2,8.375358582E-1,-1.590156555E-1
7.040559324E0,5.060195923E-2,7.725143433E-1,-1.376533508E-1
7.045594724E0,5.807876587E-2,6.926727295E-1,-1.068115234E-1
7.050599607E0,7.303237915E-2,6.116294861E-1,-6.835937500E-2
7.055604490E0,9.212493896E-2,5.371284485E-1,-1.615524292E-2
7.060609372E0,1.209640503E-1,4.699707031E-1,3.911972046E-2
7.065614255E0,1.582145691E-1,4.273796082E-1,9.025573730E-2
7.070649656E0,1.997375488E-1,4.156303406E-1,1.276397705E-1
7.075654538E0,2.466011047E-1,4.401969910E-1,1.542091370E-1
7.080659421E0,2.966690063E-1,5.020141602E-1,1.819801331E-1
7.085664304E0,3.403282166E-1,5.871963501E-1,2.021408081E-1
7.090669187E0,3.775787354E-1,6.851959229E-1,2.170944214E-1
7.095704587E0,4.106903076E-1,8.065605164E-1,2.309799194E-1
7.100709470E0,4.393959045E-1,9.462165833E-1,2.404594421E-1
7.105714353E0,4.660987854E-1,1.098556519E0,2.490043640E-1
7.110719236E0,4.916000366E-1,1.248760223E0,2.650260925E-1
7.115724119E0,5.215072632E-1,1.370124817E0,2.947998047E-1
7.120759519E0,5.470085144E-1,1.462783813E0,3.118896484E-1
7.125764402E0,5.534172058E-1,1.522464752E0,2.969360352E-1
7.130769285E0,5.470085144E-1,1.548099518E0,2.841186523E-1
7.135774167E0,5.448722839E-1,1.547031403E0,2.714347839E-1
7.140779050E0,5.470085144E-1,1.511783600E0,2.639579773E-1
7.145814451E0,5.438041687E-1,1.423397064E0,2.767753601E-1
7.150819333E0,5.341911316E-1,1.278533936E0,2.958679199E-1
7.155824216E0,5.215072632E-1,1.108036041E0,3.086853027E-1
7.160829099E0,5.193710327E-1,9.301948547E-1,3.076171875E-1
7.165833982E0,5.427360535E-1,7.534217834E-1,2.947998047E-1
7.170869382E0,5.906677246E-1,5.989456177E-1,2.757072449E-1
7.175874265E0,6.364631653E-1,4.487419128E-1,2.468681335E-1
7.180879148E0,6.674385071E-1,3.272438049E-1,2.064132690E-1
7.185884031E0,6.929397583E-1,2.431297302E-1,1.734352112E-1
7.190888913E0,7.110977173E-1,1.749038696E-1,1.574134827E-1
7.195924314E0,7.239151001E-1,1.162910461E-1,1.563453674E-1
7.200929197E0,7.408714294E-1,7.690429688E-2,1.542091370E-1
7.205934079E0,7.568931580E-1,6.301879883E-2,1.467323303E-1
7.210938962E0,7.750511169E-1,9.185791016E-2,1.308441162E-1
7.215943845E0,8.016204834E-1,1.813125610E-1,9.025573730E-2
7.220979245E0,8.324623108E-1,3.112220764E-1,4.339218140E-2
7.225984128E0,8.527565002E-1,4.721069336E-1,-7.743835449E-3
7.230989011E0,8.527565002E-1,6.276512146E-1,-7.263183594E-2
7.235993894E0,8.251190186E-1,7.438087463E-1,-1.472663879E-1
7.240998777E0,7.697105408E-1,8.300590515E-1,-2.142906189E-1
7.246034177E0,6.961441040E-1,8.822631836E-1,-2.686309814E-1
7.251039060E0,6.152343750E-1,8.843994141E-1,-3.261756897E-1
7.256043943E0,5.288505554E-1,8.321952820E-1,-4.040145874E-1
7.261048826E0,4.393959045E-1,7.448768616E-1,-4.774475098E-1
7.266053708E0,3.467369080E-1,6.223106384E-1,-5.574226379E-1
7.271058591E0,2.412605286E-1,4.487419128E-1,-6.458091736E-1
7.276093992E0,1.507377625E-1,2.942657471E-1,-7.140350342E-1
7.281098874E0,7.837295532E-2,1.674270630E-1,-7.630348206E-1
7.286103757E0,2.830505371E-2,5.767822266E-2,-7.992172241E-1
7.291108640E0,1.602172852E-3,-5.941390991E-2,-8.343315125E-1
7.296113523E0,-1.121520996E-2,-2.074813843E-1,-8.621025085E-1
7.301148923E0,-2.603530884E-2,-3.683662415E-1,-8.599662781E-1
7.306153806E0,-4.632949829E-2,-4.823875427E-1,-8.215141296E-1
7.311158689E0,-6.341934204E-2,-5.175018311E-1,-7.608985901E-1
7.316163572E0,-7.503509521E-2,-4.759788513E-1,-6.851959229E-1
7.321168454E0,-1.081466675E-1,-4.120254517E-1,-6.064224243E-1
7.326173337E0,-1.730346680E-1,-3.534126282E-1,-5.232429504E-1
7.331208738E0,-2.604866028E-1,-2.895927429E-1,-4.337882996E-1
7.336213620E0,-3.446006775E-1,-2.256393433E-1,-3.560829163E-1
7.341218503E0,-4.233741760E-1,-1.777076721E-1,-2.996063232E-1
7.346223386E0,-4.841232300E-1,-1.787757874E-1,-2.729034424E-1
7.351258787E0,-5.118942261E-1,-2.395248413E-1,-2.729034424E-1
7.356263669E0,-5.183029175E-1,-3.375244141E-1,-2.739715576E-1
7.361268552E0,-5.150985718E-1,-4.259109497E-1,-2.793121338E-1
7.366273435E0,-5.097579956E-1,-4.524803162E-1,-2.878570557E-1
7.371278318E0,-5.076217651E-1,-4.109573364E-1,-2.974700928E-1
7.376283201E0,-5.033493042E-1,-3.343200684E-1,-3.081512451E-1
7.381318601E0,-5.086898804E-1,-2.213668823E-1,-3.229713440E-1
7.386323484E0,-5.192375183E-1,-8.825302124E-2,-3.400611877E-1
7.391328367E0,-5.384635925E-1,5.033493042E-2,-3.486061096E-1
7.396333249E0,-5.810546875E-1,1.909255981E-1,-3.635597229E-1
7.401368650E0,-6.343269348E-1,3.229713440E-1,-3.773117065E-1
7.406373533E0,-6.961441040E-1,4.124259949E-1,-3.719711304E-1
7.411378415E0,-7.695770264E-1,4.369926453E-1,-3.496742249E-1
7.416383298E0,-8.452796936E-1,4.060173035E-1,-3.251075745E-1
7.421388181E0,-9.293937683E-1,2.985382080E-1,-3.038787842E-1
7.426423581E0,-1.015777588E0,9.613037109E-2,-2.867889404E-1
7.431428464E0,-1.095619202E0,-1.777076721E-1,-2.634239197E-1
7.436433347E0,-1.149959564E0,-4.652976990E-1,-2.377891541E-1
7.441438230E0,-1.161708832E0,-7.102966309E-1,-2.101516724E-1
7.446443113E0,-1.132869720E0,-8.914756775E-1,-1.887893677E-1
7.451478513E0,-1.086006165E0,-1.022453308E0,-1.802444458E-1
7.456483396E0,-1.023120880E0,-1.118316650E0,-1.759719849E-1
7.461488279E0,-9.719848633E-1,-1.229133606E0,-1.727676392E-1
7.466493162E0,-9.197807312E-1,-1.295089722E0,-1.643562317E-1
7.471498044E0,-8.687782288E-1,-1.288814545E0,-1.536750793E-1
7.476533445E0,-8.367347717E-1,-1.266384125E0,-1.451301575E-1
7.481538328E0,-8.187103271E-1,-1.220588684E0,-1.259040833E-1
7.486543210E0,-8.090972900E-1,-1.127929688E0,-9.826660156E-2
7.491548093E0,-7.994842529E-1,-1.001091003E0,-5.353927612E-2
7.496552976E0,-7.984161377E-1,-8.508872986E-1,5.073547363E-3
7.501588376E0,-7.973480225E-1,-6.783866882E-1,6.368637085E-2
7.506593259E0,-7.866668701E-1,-4.652976990E-1,1.020050049E-1
7.511598142E0,-7.686424255E-1,-2.288436890E-1,1.287078857E-1
7.516603025E0,-7.526206970E-1,-2.429962158E-2,1.467323303E-1
7.521607908E0,-7.259178162E-1,1.419258118E-1,1.520729065E-1
7.526643308E0,-6.822586060E-1,2.825164795E-1,1.371192932E-1
7.531648191E0,-6.195068359E-1,4.209709167E-1,1.030731201E-1
7.536653074E0,-5.384635925E-1,5.636978149E-1,6.902694702E-2
7.541657956E0,-4.628944397E-1,6.841278076E-1,2.857208252E-2
7.546662839E0,-3.978729248E-1,7.725143433E-1,-2.149581909E-2
7.551698240E0,-3.403282166E-1,8.311271667E-1,-6.515502930E-2
7.556703122E0,-2.934646606E-1,8.450126648E-1,-1.036071777E-1
7.561708005E0,-2.594184875E-1,8.044242859E-1,-1.472663879E-1
7.566712888E0,-2.252388000E-1,7.470130920E-1,-1.962661743E-1
7.571717771E0,-1.847839355E-1,6.713104248E-1,-2.399253845E-1
7.576753171E0,-1.411247253E-1,5.829238892E-1,-2.664947510E-1
7.581758054E0,-9.105682373E-2,4.731750488E-1,-2.729034424E-1
7.586762937E0,-4.526138306E-2,3.507423401E-1,-2.484703064E-1
7.591767820E0,-1.548767090E-2,1.962661743E-1,-1.962661743E-1
7.596772703E0,1.228332520E-2,4.179000854E-2,-1.259040833E-1
7.601808103E0,4.526138306E-2,-9.773254395E-2,-5.033493042E-2
7.606812986E0,8.358001709E-2,-2.042770386E-1,2.857208252E-2
7.611817869E0,1.261711121E-1,-2.639579773E-1,9.452819824E-2
7.616822751E0,1.560783386E-1,-3.140258789E-1,1.340484619E-1
7.621827634E0,1.815795898E-1,-3.576850891E-1,1.510047913E-1
7.626832517E0,2.040100098E-1,-3.886604309E-1,1.381874084E-1
7.631867917E0,2.200317383E-1,-4.162979126E-1,1.137542725E-1
7.636872800E0,2.337837219E-1,-4.195022583E-1,7.650375366E-2
7.641877683E0,2.498054504E-1,-3.865242004E-1,1.468658447E-2
7.646882566E0,2.562141418E-1,-3.417968750E-1,-6.315231323E-2
7.651917966E0,2.444648743E-1,-2.927970886E-1,-1.291084290E-1
7.656922849E0,2.200317383E-1,-2.309799194E-1,-1.941299438E-1
7.661927732E0,1.890563965E-1,-1.670265198E-1,-2.538108826E-1
7.666932615E0,1.550102234E-1,-9.252548218E-2,-3.060150146E-1
7.671937497E0,1.145553589E-1,-2.937316895E-3,-3.603553772E-1
7.676972898E0,7.730484009E-2,9.826660156E-2,-4.093551636E-1
7.681977781E0,4.205703735E-2,1.973342896E-1,-4.508781433E-1
7.686982663E0,4.806518555E-3,2.953338623E-1,-5.009460449E-1
7.691987546E0,-3.458023071E-2,3.826522827E-1,-5.574226379E-1
7.696992429E0,-7.717132568E-2,4.550170898E-1,-6.191062927E-1
7.702027829E0,-1.188278198E-1,5.296516418E-1,-6.862640381E-1
7.707032712E0,-1.571464539E-1,6.265830994E-1,-7.470130920E-1
7.712037595E0,-2.008056641E-1,7.245826721E-1,-8.002853394E-1
7.717042478E0,-2.369880676E-1,8.300590515E-1,-8.556938171E-1
7.722047361E0,-2.679634094E-1,9.440803528E-1,-9.163093567E-1
7.727082761E0,-2.977371216E-1,1.047420502E0,-9.601020813E-1
7.732087644E0,-3.180313110E-1,1.103763580E0,-9.920120239E-1
7.737092527E0,-3.243064880E-1,1.125125885E0,-1.017513275E0
7.742097410E0,-3.253746033E-1,1.143283844E0,-1.022853851E0
7.747102292E0,-3.180313110E-1,1.137943268E0,-1.020717621E0
7.752107175E0,-3.126907349E-1,1.111240387E0,-1.018581390E0
7.757142576E0,-3.073501587E-1,1.072921753E0,-1.030330658E0
7.762147458E0,-2.902603149E-1,1.020717621E0,-1.053829193E0
7.767152341E0,-2.551460266E-1,9.536933899E-1,-1.090011597E0
7.772157224E0,-2.093505859E-1,8.854675293E-1,-1.120853424E0
7.777162107E0,-1.560783386E-1,8.460807800E-1,-1.145420074E0
7.782197507E0,-9.746551514E-2,8.236503601E-1,-1.160373688E0
7.787202390E0,-4.419326782E-2,7.981491089E-1,-1.166648865E0
7.792207273E0,1.014709473E-2,7.821273804E-1,-1.169853210E0
7.797212156E0,5.701065063E-2,7.725143433E-1,-1.159305573E0
7.802217038E0,8.678436279E-2,7.575607300E-1,-1.142215729E0
7.807252439E0,9.639739990E-2,7.235145569E-1,-1.136875153E0
7.812257322E0,8.037567139E-2,6.595611572E-1,-1.146488190E0
7.817262204E0,3.778457642E-2,5.615615845E-1,-1.170921326E0
7.822267087E0,-1.655578613E-2,4.070854187E-1,-1.209373474E0
7.827271970E0,-8.358001709E-2,2.399253845E-1,-1.259441376E0
7.832307370E0,-1.699638367E-1,1.056098938E-1,-1.312713623E0
7.837312253E0,-2.827835083E-1,-4.659652710E-2,-1.384010315E0
7.842317136E0,-4.203033447E-1,-2.458000183E-1,-1.476669312E0
7.847322019E0,-5.703735352E-1,-4.823875427E-1,-1.577873230E0
7.852326902E0,-6.961441040E-1,-7.263183594E-1,-1.685485840E0
7.857362302E0,-7.834625244E-1,-9.351348877E-1,-1.799507141E0
7.862367185E0,-8.080291748E-1,-1.079998016E0,-1.895370483E0
7.867372068E0,-7.611656189E-1,-1.133270264E0,-1.952915192E0
7.872376951E0,-6.120300293E-1,-1.062908173E0,-1.968803406E0
7.877381833E0,-3.595542908E-1,-8.455467224E-1,-1.920871735E0
7.882417234E0,-1.113510132E-1,-6.623649597E-1,-1.818599701E0
7.887422117E0,8.464813232E-2,-6.602287292E-1,-1.695098877E0
7.892426999E0,2.018737793E-1,-7.369995117E-1,-1.561985016E0
7.897431882E0,2.540779114E-1,-7.753181458E-1,-1.400032043E0
7.902436765E0,2.572822571E-1,-8.018875122E-1,-1.217784882E0
7.907472165E0,2.093505859E-1,-8.711814880E-1,-1.047420502E0
7.912477048E0,1.017379761E-1,-9.276580811E-1,-8.630371094E-1
7.917481931E0,-2.496719360E-2,-9.819984436E-1,-6.755828857E-1
7.922486814E0,-1.550102234E-1,-1.036338806E0,-5.253791809E-1
7.927491697E0,-2.881240845E-1,-1.059703827E0,-4.072189331E-1
7.932527097E0,-3.936004639E-1,-1.010704041E0,-3.186988831E-1
7.937531980E0,-4.511451721E-1,-8.924102783E-1,-2.771759033E-1
7.942536863E0,-4.734420776E-1,-7.486152649E-1,-2.942657471E-1
7.947541745E0,-4.958724976E-1,-6.389999390E-1,-3.571510315E-1
7.952546628E0,-5.534172058E-1,-6.208419800E-1,-4.487419128E-1
7.957582029E0,-6.535530090E-1,-6.922721863E-1,-5.499458313E-1
7.962586912E0,-7.727813721E-1,-8.317947388E-1,-6.383323669E-1
7.967591794E0,-8.666419983E-1,-9.841346741E-1,-7.171058655E-1
7.972596677E0,-9.081649780E-1,-1.112976074E0,-7.970809937E-1
7.977601560E0,-9.017562866E-1,-1.208839417E0,-8.621025085E-1
7.982636960E0,-8.645057678E-1,-1.271724701E0,-9.046936035E-1
7.987641843E0,-8.133697510E-1,-1.326065063E0,-9.057617188E-1
7.992646726E0,-7.568931580E-1,-1.370792389E0,-8.651733398E-1
7.997651609E0,-6.897354126E-1,-1.385746002E0,-7.938766479E-1
8.002656492E0,-6.173706055E-1,-1.359043121E0,-7.086944580E-1
8.007691892E0,-5.438041687E-1,-1.306838989E0,-6.394004822E-1
8.012696775E0,-4.841232300E-1,-1.225929260E0,-5.914688110E-1
8.017701658E0,-4.436683655E-1,-1.123657227E0,-5.648994446E-1
8.022706540E0,-4.319190979E-1,-1.027793884E0,-5.584907532E-1
8.027711423E0,-4.479408264E-1,-9.319305420E-1,-5.606269836E-1
8.032746824E0,-4.948043823E-1,-8.253860474E-1,-5.701065063E-1
8.037751706E0,-5.735778809E-1,-7.241821289E-1,-5.786514282E-1
8.042756589E0,-6.918716431E-1,-6.612968445E-1,-5.861282349E-1
8.047761472E0,-8.356666565E-1,-6.293869019E-1,-5.850601196E-1
8.052766355E0,-9.751892090E-1,-6.058883667E-1,-5.743789673E-1
8.057801755E0,-1.107368469E0,-6.090927124E-1,-5.711746216E-1
8.062806638E0,-1.209640503E0,-6.187057495E-1,-5.595588684E-1
8.067811521E0,-1.253299713E0,-5.814552307E-1,-5.168342590E-1
8.072816404E0,-1.217117310E0,-4.685020447E-1,-4.412651062E-1
8.077821287E0,-1.102027893E0,-2.917289734E-1,-3.197669983E-1
8.082856687E0,-9.432792664E-1,-7.543563843E-2,-1.706314087E-1
8.087861570E0,-7.686424255E-1,1.599502563E-1,-1.094818115E-2
8.092866453E0,-6.184387207E-1,3.986740112E-1,1.413917542E-1
8.097871335E0,-5.172348022E-1,6.062889099E-1,2.671623230E-1
8.102876218E0,-4.522132874E-1,7.714462280E-1,3.480720520E-1
8.107911619E0,-4.085540771E-1,8.929443359E-1,3.863906860E-1
8.112916501E0,-3.807830811E-1,9.526252747E-1,3.917312622E-1
8.117921384E0,-3.702354431E-1,9.440803528E-1,3.758430481E-1
8.122926267E0,-3.797149658E-1,8.630371094E-1,3.502082825E-1
8.127931150E0,-4.096221924E-1,7.192420959E-1,3.193664551E-1
8.132966550E0,-4.415321350E-1,5.414009094E-1,2.947998047E-1
8.137971433E0,-4.703712463E-1,3.655624390E-1,2.767753601E-1
8.142976316E0,-4.894638062E-1,2.046775818E-1,2.639579773E-1
8.147981199E0,-4.937362671E-1,7.049560547E-2,2.511405945E-1
8.152986081E0,-4.766464233E-1,-4.552841187E-2,2.415275574E-1
8.158021482E0,-4.404640198E-1,-1.415252686E-1,2.425956726E-1
8.163026365E0,-3.925323486E-1,-2.042770386E-1,2.522087097E-1
8.168031247E0,-3.552818298E-1,-2.363204956E-1,2.757072449E-1
8.173036130E0,-3.126907349E-1,-2.500724792E-1,3.076171875E-1
8.178041013E0,-2.594184875E-1,-2.458000183E-1,3.395271301E-1
8.183076413E0,-2.114868164E-1,-2.299118042E-1,3.662300110E-1
8.188081296E0,-1.699638367E-1,-2.170944214E-1,3.874588013E-1
8.193086179E0,-1.304435730E-1,-2.010726929E-1,4.024124146E-1
8.198091062E0,-9.746551514E-2,-1.712989807E-1,4.088211060E-1
8.203095945E0,-6.448745728E-2,-1.531410217E-1,4.120254517E-1
8.208131345E0,-1.441955566E-2,-1.456642151E-1,4.162979126E-1
8.213136228E0,5.380630493E-2,-1.436614990E-1,4.184341431E-1
8.218141111E0,1.347160339E-1,-1.425933838E-1,4.259109497E-1
8.223145994E0,2.136230469E-1,-1.520729065E-1,4.291152954E-1
8.228150876E0,2.859878540E-1,-1.777076721E-1,4.417991638E-1
8.233186277E0,3.435325623E-1,-2.160263062E-1,4.514122009E-1
8.238191160E0,3.670310974E-1,-2.660942078E-1,4.556846619E-1
8.243196042E0,3.435325623E-1,-3.129577637E-1,4.578208923E-1
8.248200925E0,2.786445618E-1,-3.289794922E-1,4.503440857E-1
8.253205808E0,1.976013184E-1,-3.236389160E-1,4.269790649E-1
8.258241208E0,1.272392273E-1,-2.980041504E-1,3.854560852E-1
8.263246091E0,7.623672485E-2,-2.458000183E-1,3.257751465E-1
8.268250974E0,4.205703735E-2,-1.745033264E-1,2.671623230E-1
8.273255857E0,2.082824707E-2,-8.077621460E-2,2.032089233E-1
8.278260740E0,4.806518555E-3,1.188278198E-2,1.190948486E-1
8.283296140E0,-4.806518555E-3,8.438110352E-2,2.857208252E-2
8.288301023E0,-1.762390137E-2,1.440620422E-1,-4.392623901E-2
8.293305906E0,-2.389907837E-2,1.770401001E-1,-8.544921875E-2
8.298310788E0,-3.137588501E-2,1.749038696E-1,-9.292602539E-2
8.303315671E0,-5.273818970E-2,1.620864868E-1,-5.674362183E-2
8.308351072E0,-1.092147827E-1,1.802444458E-1,-3.471374512E-3
8.313355954E0,-1.699638367E-1,1.652908325E-1,2.002716064E-2
8.318360837E0,-2.380561829E-1,8.010864258E-2,-2.149581909E-2
8.323365720E0,-3.371238708E-1,-3.284454346E-2,-1.237678528E-1
8.328401120E0,-4.819869995E-1,-6.368637085E-2,-2.516746521E-1
8.333406003E0,-7.269859314E-1,1.536750793E-1,-3.698348999E-1
8.338380369E0,-1.326732635E0,1.077194214E0,-4.156303406E-1
8.343385251E0,-2.426090240E0,3.033046722E0,-3.347206116E-1
8.348420652E0,-3.241062164E0,4.754447937E0,-2.910614014E-1
8.353456052E0,-3.280448914E0,5.369148254E0,-3.592872620E-1
8.358430417E0,-2.850131989E0,5.388374329E0,-5.232429504E-1
8.363435300E0,-2.290840149E0,5.239238739E0,-7.831954956E-1
8.368470701E0,-1.804046631E0,5.119876862E0,-1.021785736E0
8.373506101E0,-1.522731781E0,4.970741272E0,-1.126194000E0
8.378510984E0,-1.393890381E0,4.746036530E0,-1.156101227E0
8.383515867E0,-1.340618134E0,4.398632050E0,-1.131534576E0
8.388520749E0,-1.413116455E0,3.925724030E0,-1.049556732E0
8.393525632E0,-1.581344604E0,3.274841309E0,-9.205818176E-1
8.398530515E0,-1.798706055E0,2.393913269E0,-7.608985901E-1
8.403565915E0,-2.023410797E0,1.266784668E0,-5.871963501E-1
8.408570798E0,-2.270545959E0,-1.809120178E-1,-4.104232788E-1
8.413575681E0,-2.420749664E0,-1.632881165E0,-2.452659607E-1
8.418580564E0,-2.389907837E0,-2.801399231E0,-1.100158691E-1
8.423585447E0,-2.250385284E0,-3.726119995E0,-4.179000854E-2
8.428590329E0,-2.076683044E0,-4.382343292E0,-1.201629639E-2
8.433595212E0,-1.888160706E0,-4.671001434E0,2.937316895E-3
8.438630613E0,-1.692161560E0,-4.587821960E0,8.010864258E-4
8.443635495E0,-1.459980011E0,-4.236278534E0,-1.508712769E-2
8.448640378E0,-1.163845062E0,-3.720779419E0,-4.819869995E-2
8.453645261E0,-7.962799072E-1,-3.099670410E0,-9.826660156E-2
8.458650144E0,-3.871917725E-1,-2.440242767E0,-1.568794250E-1
8.463685544E0,3.885269165E-2,-1.842632294E0,-2.101516724E-1
8.468690427E0,4.639625549E-1,-1.377201080E0,-2.388572693E-1
8.473695310E0,8.548927307E-1,-1.061840057E0,-2.324485779E-1
8.478700193E0,1.160640717E0,-8.382034302E-1,-1.823806763E-1
8.483705076E0,1.335277557E0,-6.452751160E-1,-1.068115234E-1
8.488740476E0,1.397094727E0,-4.823875427E-1,-3.751754761E-2
8.493745359E0,1.403503418E0,-4.066848755E-1,1.468658447E-2
8.498750242E0,1.416320801E0,-4.503440857E-1,7.329940796E-2
8.503755124E0,1.450366974E0,-5.271148682E-1,1.456642151E-1
8.508760007E0,1.518592834E0,-5.494117737E-1,2.202987671E-1
8.513795408E0,1.611251831E0,-4.588890076E-1,2.980041504E-1
8.518800290E0,1.711387634E0,-2.917289734E-1,3.683662415E-1
8.523805173E0,1.802978516E0,-9.038925171E-2,4.269790649E-1
8.528810056E0,1.865863800E0,1.130867004E-1,4.717063904E-1
8.533845456E0,1.899909973E0,2.771759033E-1,4.972076416E-1
8.538850339E0,1.906318665E0,3.815841675E-1,5.036163330E-1
8.543855222E0,1.892433167E0,4.188346863E-1,5.004119873E-1
8.548860105E0,1.870136261E0,3.933334351E-1,4.833221436E-1
8.553864988E0,1.837024689E0,3.315162659E-1,4.685020447E-1
8.558869870E0,1.793365479E0,2.484703064E-1,4.588890076E-1
8.563874753E0,1.751842499E0,1.387214661E-1,4.535484314E-1
8.568879636E0,1.707115173E0,2.363204956E-2,4.439353943E-1
8.573884519E0,1.658115387E0,-6.795883179E-2,4.332542419E-1
8.578889402E0,1.615524292E0,-1.169586182E-1,4.120254517E-1
8.583924802E0,1.586685181E0,-1.212310791E-1,3.747749329E-1
8.588929685E0,1.570796967E0,-7.650375366E-2,3.321838379E-1
8.593934568E0,1.569728851E0,-7.209777832E-3,2.841186523E-1
8.598939451E0,1.580276489E0,9.613037109E-2,2.351188660E-1
8.603974851E0,1.603775024E0,2.281761169E-1,1.989364624E-1
8.608979734E0,1.630344391E0,3.379249573E-1,1.712989807E-1
8.613984617E0,1.653842926E0,4.273796082E-1,1.659584045E-1
8.618989499E0,1.682548523E0,5.030822754E-1,2.053451538E-1
8.624024900E0,1.719932556E0,5.339241028E-1,2.990722656E-1
8.629029783E0,1.753978729E0,5.146980286E-1,4.321861267E-1
8.634034665E0,1.771068573E0,4.434013367E-1,5.729103088E-1
8.639070066E0,1.761455536E0,3.261756897E-1,7.092285156E-1
8.644074949E0,1.732616425E0,1.558113098E-1,8.337974548E-1
8.649079831E0,1.675205231E0,-2.857208252E-2,9.403419495E-1
8.654084714E0,1.589889526E0,-2.085494995E-1,1.006431580E0
8.659089597E0,1.489753723E0,-3.970718384E-1,1.021385193E0
8.664124997E0,1.384277344E0,-6.165695190E-1,9.745216370E-1
8.669129880E0,1.307640076E0,-9.383392334E-1,9.041595459E-1
8.674134763E0,1.282005310E0,-1.362247467E0,8.412742615E-1
8.679139646E0,1.290550232E0,-1.837425232E0,7.774543762E-1
8.684144529E0,1.273593903E0,-2.213401794E0,6.910705566E-1
8.689179929E0,1.193618774E0,-2.406196594E0,5.994796753E-1
8.694184812E0,1.067981720E0,-2.478694916E0,5.014801025E-1
8.699189695E0,9.135055542E-1,-2.448787689E0,4.109573364E-1
8.704194578E0,7.504844666E-1,-2.344379425E0,3.257751465E-1
8.709199460E0,5.694389343E-1,-2.186832428E0,2.479362488E-1
8.714234861E0,3.903961182E-1,-1.993904114E0,1.809120178E-1
8.719239744E0,2.508735657E-1,-1.744632721E0,1.351165771E-1
8.724244626E0,1.783752441E-1,-1.465587616E0,1.255035400E-1
8.729249509E0,1.783752441E-1,-1.173725128E0,1.413917542E-1
8.734254392E0,2.168273926E-1,-8.807945251E-1,1.830482483E-1
8.739289792E0,2.551460266E-1,-6.133651733E-1,2.320480347E-1
8.744294675E0,2.690315247E-1,-4.141616821E-1,2.725028992E-1
8.749299558E0,2.604866028E-1,-2.980041504E-1,2.958679199E-1
8.754304441E0,2.200317383E-1,-2.650260925E-1,3.022766113E-1
8.759309324E0,1.624870300E-1,-3.022766113E-1,3.012084961E-1
8.764344724E0,9.746551514E-2,-3.992080688E-1,3.033447266E-1
8.769349607E0,4.312515259E-2,-5.388641357E-1,2.937316895E-1
8.774354490E0,3.738403320E-3,-6.815910339E-1,2.915954590E-1
8.779359372E0,-2.189636230E-2,-8.050918579E-1,2.851867676E-1
8.784364255E0,-3.351211548E-2,-8.904075623E-1,2.564811707E-1
8.789399656E0,-1.762390137E-2,-9.276580811E-1,1.745033264E-1
8.794404538E0,2.923965454E-2,-9.319305420E-1,4.980087280E-2
8.799409421E0,7.303237915E-2,-8.530235291E-1,-1.142883301E-1
8.804414304E0,1.038742065E-1,-6.452751160E-1,-3.272438049E-1
8.809419187E0,1.092147827E-1,-2.352523804E-1,-5.381965637E-1
8.814424070E0,6.982803345E-2,4.284477234E-1,-7.203102112E-1
8.819459470E0,1.548767090E-2,1.241283417E0,-8.514213562E-1
8.824464353E0,5.874633789E-3,1.968803406E0,-8.610343933E-1
8.829469236E0,1.028060913E-1,2.409801483E0,-7.065582275E-1
8.834474119E0,3.244400024E-1,2.509937286E0,-4.817199707E-1
8.839509519E0,5.928039551E-1,2.298049927E0,-2.388572693E-1
8.844514402E0,8.176422119E-1,1.785621643E0,2.002716064E-2
8.849519285E0,9.539604187E-1,1.154899597E0,2.372550964E-1
8.854524167E0,1.021118164E0,5.572891235E-1,3.544807434E-1
8.859529050E0,1.050891876E0,5.874633789E-2,4.184341431E-1
8.864564451E0,1.072254181E0,-3.247070312E-1,4.588890076E-1
8.869569333E0,1.087074280E0,-6.005477905E-1,4.961395264E-1
8.874574216E0,1.113777161E0,-8.050918579E-1,5.408668518E-1
8.879579099E0,1.153163910E0,-9.319305420E-1,5.866622925E-1
8.884583982E0,1.211776733E0,-9.394073486E-1,6.037521362E-1
8.889619382E0,1.295890808E0,-8.285903931E-1,5.835914612E-1
8.894624265E0,1.375732422E0,-6.229782104E-1,5.451393127E-1
8.899629148E0,1.401367188E0,-3.289794922E-1,5.153656006E-1
8.904634031E0,1.369457245E0,-3.284454346E-2,4.738426208E-1
8.909638913E0,1.285209656E0,1.749038696E-1,4.280471802E-1
8.914674314E0,1.165981293E0,2.889251709E-1,3.874588013E-1
8.919679197E0,1.030597687E0,2.825164795E-1,3.651618958E-1
8.924684079E0,8.921432495E-1,1.429939270E-1,3.640937805E-1
8.929688962E0,7.600975037E-1,-9.666442871E-2,3.726387024E-1
8.934693845E0,6.332588196E-1,-3.875923157E-1,3.843879700E-1
8.939698728E0,5.118942261E-1,-6.879997253E-1,3.970718384E-1
8.944734128E0,4.064178467E-1,-9.755897522E-1,4.195022583E-1
8.949739011E0,3.296470642E-1,-1.225929260E0,4.482078552E-1
8.954743894E0,2.977371216E-1,-1.408042908E0,4.642295837E-1
8.959748777E0,3.137588501E-1,-1.499633789E0,4.749107361E-1
8.964753660E0,3.616905212E-1,-1.501770020E0,4.813194275E-1
8.969789060E0,3.946685791E-1,-1.462383270E0,4.854583740E-1
8.974793943E0,3.807830811E-1,-1.441020966E0,5.110931396E-1
8.979798826E0,3.169631958E-1,-1.437950134E0,5.494117737E-1
8.984803708E0,2.264404297E-1,-1.388950348E0,5.930709839E-1
8.989808591E0,1.188278198E-1,-1.288814545E0,6.431388855E-1
8.994843992E0,1.014709473E-2,-1.163043976E0,7.038879395E-1
8.999848874E0,-8.571624756E-2,-1.071453094E0,7.571601868E-1
9.004853757E0,-1.954650879E-1,-1.062908173E0,7.721138000E-1
9.009858640E0,-3.169631958E-1,-1.063976288E0,7.678413391E-1
9.014863523E0,-4.149627686E-1,-1.007499695E0,7.667732239E-1
9.019898923E0,-4.819869995E-1,-9.308624268E-1,7.635688782E-1
9.024903806E0,-5.108261108E-1,-8.498191833E-1,7.689094543E-1
9.029908689E0,-5.054855347E-1,-7.657051086E-1,7.933425903E-1
9.034913572E0,-4.628944397E-1,-6.762504578E-1,8.402061462E-1
9.039918454E0,-4.053497314E-1,-6.080245972E-1,8.934783936E-1
9.044953855E0,-3.392601013E-1,-5.303192139E-1,9.424781799E-1
9.049958738E0,-2.551460266E-1,-4.173660278E-1,9.734535217E-1
9.054963620E0,-1.603507996E-1,-2.671623230E-1,9.925460815E-1
9.059968503E0,-6.235122681E-2,-1.116180420E-1,9.957504272E-1
9.064973386E0,3.564834595E-2,3.110885620E-2,9.798622131E-1
9.070008787E0,1.198959351E-1,1.536750793E-1,9.520912170E-1
9.075013669E0,1.688957214E-1,2.506065369E-1,9.169769287E-1
9.080018552E0,1.869201660E-1,3.229713440E-1,8.765220642E-1
9.085023435E0,1.773071289E-1,3.719711304E-1,8.391380310E-1
9.090028318E0,1.475334167E-1,4.018783569E-1,8.179092407E-1
9.095063718E0,1.113510132E-1,4.124259949E-1,8.275222778E-1
9.100068601E0,6.555557251E-2,4.102897644E-1,8.530235291E-1
9.105073484E0,1.441955566E-2,4.038810730E-1,8.838653564E-1
9.110078367E0,-2.710342407E-2,3.869247437E-1,9.201812744E-1
9.115083249E0,-5.380630493E-2,3.389930725E-1,9.617042542E-1
9.120118650E0,-6.555557251E-2,2.707672119E-1,1.004295349E0
9.125123533E0,-5.701065063E-2,2.110862732E-1,1.056499481E0
9.130128415E0,-4.098892212E-2,1.695632935E-1,1.111907959E0
9.135133298E0,-3.671646118E-2,1.248359680E-1,1.167316437E0
9.140138181E0,-3.458023071E-2,8.010864258E-2,1.219520569E0
9.145173581E0,-3.885269165E-2,4.819869995E-2,1.271724701E0
9.150178464E0,-4.739761353E-2,3.965377808E-2,1.323928833E0
9.155183347E0,-6.448745728E-2,6.729125977E-2,1.373996735E0
9.160188230E0,-9.212493896E-2,1.173591614E-1,1.417655945E0
9.165193113E0,-1.507377625E-1,1.642227173E-1,1.454906464E0
9.170228513E0,-2.337837219E-1,1.706314087E-1,1.490020752E0
9.175233396E0,-3.307151794E-1,1.216316223E-1,1.525268555E0
9.180238279E0,-4.276466370E-1,1.829147339E-2,1.566791534E0
9.185243162E0,-5.192375183E-1,-1.393890381E-1,1.613655090E0
9.190248044E0,-5.981445312E-1,-3.140258789E-1,1.675472260E0
9.195283445E0,-6.450080872E-1,-4.695701599E-1,1.752109528E0
9.200288328E0,-6.779861450E-1,-6.240463257E-1,1.817131042E0
9.205293210E0,-7.046890259E-1,-7.892036438E-1,1.882019043E0
9.210298093E0,-7.143020630E-1,-9.265899658E-1,1.948108673E0
9.215302976E0,-6.982803345E-1,-1.010704041E0,2.003517151E0
9.220338376E0,-6.758499146E-1,-1.036338806E0,2.046108246E0
9.225343259E0,-6.439399719E-1,-1.036338806E0,2.078151703E0
9.230348142E0,-6.088256836E-1,-9.905433655E-1,2.086563110E0
9.235353025E0,-5.725097656E-1,-9.030914307E-1,2.086563110E0
9.240357908E0,-5.735778809E-1,-7.753181458E-1,2.066402435E0
9.245393308E0,-6.045532227E-1,-6.176376343E-1,2.019538879E0
9.250398191E0,-6.663703918E-1,-4.439353943E-1,1.963062286E0
9.255403074E0,-7.472801208E-1,-2.395248413E-1,1.891632080E0
9.260407956E0,-8.378028870E-1,-4.138946533E-2,1.807518005E0
9.265412839E0,-9.167098999E-1,1.098823547E-1,1.730880737E0
9.270448240E0,-9.719848633E-1,2.164268494E-1,1.673336029E0
9.275453122E0,-9.933471680E-1,2.696990967E-1,1.634883881E0
9.280458005E0,-9.762573242E-1,2.622222900E-1,1.615791321E0
9.285462888E0,-9.293937683E-1,2.121543884E-1,1.608314514E0
9.290467771E0,-8.602333069E-1,1.141548157E-1,1.614723206E0
9.295503171E0,-7.738494873E-1,-2.937316895E-3,1.627540588E0
9.300508054E0,-6.801223755E-1,-9.773254395E-2,1.646633148E0
9.305512937E0,-5.895996094E-1,-1.702308655E-1,1.655178070E0
9.310517820E0,-4.958724976E-1,-2.074813843E-1,1.642360687E0
9.315522703E0,-4.085540771E-1,-2.096176147E-1,1.621131897E0
9.320558103E0,-3.424644470E-1,-1.659584045E-1,1.577472687E0
9.325562986E0,-2.998733521E-1,-8.504867554E-2,1.516723633E0
9.330567869E0,-2.891921997E-1,2.576828003E-2,1.450634003E0
9.335572751E0,-3.116226196E-1,1.631546021E-1,1.390953064E0
9.340577634E0,-3.648948669E-1,3.186988831E-1,1.344089508E0
9.345613035E0,-4.404640198E-1,4.763793945E-1,1.311111450E0
9.350617917E0,-5.363273621E-1,6.116294861E-1,1.285476685E0
9.355622800E0,-6.375312805E-1,7.053565979E-1,1.264247894E0
9.360627683E0,-7.312583923E-1,7.160377502E-1,1.232204437E0
9.365632566E0,-7.909393311E-1,6.404685974E-1,1.202430725E0
9.370667966E0,-8.217811584E-1,4.913330078E-1,1.191749573E0
9.375672849E0,-8.388710022E-1,2.793121338E-1,1.203498840E0
9.380677732E0,-8.155059814E-1,9.185791016E-2,1.220588684E0
9.385682615E0,-7.633018494E-1,-2.323150635E-2,1.232204437E0
9.390687497E0,-7.333946228E-1,-9.452819824E-2,1.245021820E0
9.395722898E0,-7.483482361E-1,-1.383209229E-1,1.265316010E0
9.400727781E0,-7.984161377E-1,-1.340484619E-1,1.288681030E0
9.405732663E0,-8.932113647E-1,-5.727767944E-2,1.283340454E0
9.410737546E0,-1.041278839E0,1.036071777E-1,1.231136322E0
9.415742429E0,-1.204299927E0,2.825164795E-1,1.143817902E0
9.420777829E0,-1.345958710E0,4.592895508E-1,1.086273193E0
9.425782712E0,-1.426868439E0,6.798553467E-1,1.056499481E0
9.430787595E0,-1.398162842E0,8.961486816E-1,1.012840271E0
9.435792478E0,-1.273460388E0,1.085739136E0,9.649085999E-1
9.440797361E0,-1.114845276E0,1.227397919E0,9.095001221E-1
9.445832761E0,-9.475517273E-1,1.261444092E0,8.359336853E-1
9.450837644E0,-7.622337341E-1,1.165580750E0,7.368659973E-1
9.455842527E0,-5.395317078E-1,1.008968353E0,6.112289429E-1
9.460847410E0,-2.763748169E-1,8.460807800E-1,4.663658142E-1
9.465852292E0,-5.487442017E-2,7.746505737E-1,3.193664551E-1
9.470887693E0,4.098892212E-2,8.961486816E-1,2.064132690E-1
9.475892576E0,3.244400024E-2,1.163444519E0,1.659584045E-1
9.480897458E0,1.976013184E-2,1.443691254E0,2.085494995E-1
9.485902341E0,2.723693848E-2,1.664123535E0,2.980041504E-1
9.490907224E0,1.548767090E-2,1.842098236E0,4.184341431E-1
9.495942624E0,-2.283096313E-2,1.954917908E0,5.451393127E-1
9.500947507E0,-6.128311157E-2,1.975212097E0,6.612968445E-1
9.505952390E0,-6.982803345E-2,1.881484985E0,7.411384583E-1
9.510957273E0,-7.396697998E-2,1.708850861E0,7.922744751E-1
9.515962156E0,-1.166915894E-1,1.590690613E0,8.391380310E-1
9.520997556E0,-1.603507996E-1,1.590690613E0,8.765220642E-1
9.526002439E0,-1.411247253E-1,1.707782745E0,8.956146240E-1
9.531007322E0,-5.594253540E-2,1.870803833E0,9.191131592E-1
9.536012204E0,8.892059326E-2,2.016735077E0,9.649085999E-1
9.541017087E0,2.923965454E-1,2.108325958E0,1.037273407E0
9.546021970E0,5.204391479E-1,2.131824493E0,1.107635498E0
9.551057370E0,7.344627380E-1,2.099914551E0,1.153430939E0
9.556062253E0,9.006881714E-1,2.125415802E0,1.192817688E0
9.561067136E0,1.032733917E0,2.236232758E0,1.247158051E0
9.566072019E0,1.096687317E0,2.372550964E0,1.327133179E0
9.571076902E0,1.073322296E0,2.504596710E0,1.405906677E0
9.576112302E0,1.006164551E0,2.547321320E0,1.450634003E0
9.581117185E0,8.900070190E-1,2.592048645E0,1.517791748E0
9.586122068E0,7.312583923E-1,2.593116760E0,1.589088440E0
9.591126951E0,5.544853210E-1,2.462005615E0,1.606178284E0
9.596131833E0,3.595542908E-1,2.259597778E0,1.577472687E0
9.601167234E0,1.976013184E-1,2.057189941E0,1.552906036E0
9.606172117E0,7.944107056E-2,1.943302155E0,1.539020538E0
9.611176999E0,-3.458023071E-2,1.919803619E0,1.509246826E0
9.616181882E0,-1.699638367E-1,1.894302368E0,1.410179138E0
9.621186765E0,-2.827835083E-1,1.802577972E0,1.337680817E0
9.626191648E0,-3.733062744E-1,1.725940704E0,1.333408356E0
9.631196531E0,-4.447364807E-1,1.708850861E0,1.339817047E0
9.636201413E0,-5.224418640E-1,1.778144836E0,1.301498413E0
9.641206296E0,-6.013488770E-1,1.831417084E0,1.210975647E0
9.646241697E0,-6.215095520E-1,1.828212738E0,1.217384338E0
9.651246579E0,-6.332588196E-1,1.881484985E0,1.269588470E0
9.656281980E0,-6.865310669E-1,1.959190369E0,1.182270050E0
9.661286863E0,-7.205772400E-1,1.955986023E0,1.085205078E0
9.666291745E0,-7.195091248E-1,1.944370270E0,1.089477539E0
9.671327146E0,-7.323265076E-1,1.996574402E0,1.086273193E0
9.676332029E0,-7.770538330E-1,2.056121826E0,9.595680237E-1
9.681336912E0,-8.155059814E-1,2.025279999E0,8.104324341E-1
9.686341794E0,-8.399391174E-1,1.958122253E0,7.390022278E-1
9.691346677E0,-8.996200562E-1,1.924076080E0,6.773185730E-1
9.696351560E0,-9.965515137E-1,1.935825348E0,6.069564819E-1
9.701386960E0,-1.089210510E0,1.954917908E0,5.462074280E-1
9.706391843E0,-1.148891449E0,1.974143982E0,5.207061768E-1
9.711396726E0,-1.174392700E0,1.960258484E0,4.642295837E-1
9.716401609E0,-1.212844849E0,1.895370483E0,2.714347839E-1
9.721406492E0,-1.242618561E0,1.792030334E0,1.030731201E-1
9.726441892E0,-1.257572174E0,1.695098877E0,3.698348999E-2
9.731446775E0,-1.268253326E0,1.629009247E0,2.216339111E-2
9.736451658E0,-1.238346100E0,1.596031189E0,1.575469971E-2
9.741456540E0,-1.125392914E0,1.569328308E0,6.141662598E-3
9.746461423E0,-9.422111511E-1,1.540622711E0,2.323150635E-2
9.751496824E0,-7.365989685E-1,1.523532867E0,1.020050049E-1
9.756501706E0,-5.384635925E-1,1.480941772E0,2.245712280E-1
9.761506589E0,-3.957366943E-1,1.423397064E0,3.640937805E-1
9.766511472E0,-3.243064880E-1,1.384010315E0,4.950714111E-1
9.771516355E0,-2.934646606E-1,1.323261261E0,6.080245972E-1
9.776551755E0,-2.476692200E-1,1.182670593E0,7.231140137E-1
9.781556638E0,-1.826477051E-1,9.909439087E-1,8.572959900E-1
9.786561521E0,-1.304435730E-1,8.279228210E-1,9.841346741E-1
9.791566404E0,-1.049423218E-1,7.235145569E-1,1.089477539E0
9.796571287E0,-9.319305420E-2,6.584930420E-1,1.175861359E0
9.801606687E0,-9.960174561E-2,6.542205811E-1,1.223793030E0
9.806611570E0,-1.113510132E-1,7.085609436E-1,1.239681244E0
9.811616453E0,-1.017379761E-1,7.714462280E-1,1.237545013E0
9.816621335E0,-1.156234741E-1,8.993530273E-1,1.164112091E0
9.821626218E0,-1.315116882E-1,1.048488617E0,9.946823120E-1
9.826661619E0,-1.070785522E-1,1.122989655E0,8.934783936E-1
9.831666501E0,-1.028060913E-1,1.162376404E0,8.551597595E-1
9.836671384E0,-1.368522644E-1,1.211376190E0,7.997512817E-1
9.841676267E0,-1.667594910E-1,1.246623993E0,7.464790344E-1
9.846681150E0,-1.741027832E-1,1.261444092E0,7.220458984E-1
9.851716550E0,-1.656913757E-1,1.242351532E0,7.220458984E-1
9.856721433E0,-1.507377625E-1,1.181602478E0,7.432746887E-1
9.861726316E0,-1.389884949E-1,1.105899811E0,7.731819153E-1
9.866731199E0,-1.272392273E-1,1.026058197E0,8.136367798E-1
9.871736081E0,-9.746551514E-2,9.355354309E-1,8.701133728E-1
9.876771482E0,-4.419326782E-2,8.300590515E-1,9.649085999E-1
9.881776365E0,2.510070801E-2,7.213783264E-1,1.047954559E0
9.886781247E0,1.081466675E-1,6.340599060E-1,1.099090576E0
9.891786130E0,1.954650879E-1,5.807876587E-1,1.130065918E0
9.896791013E0,2.923965454E-1,5.467414856E-1,1.134204865E0
9.901826413E0,3.893280029E-1,5.317878723E-1,1.116180420E0
9.906831296E0,4.767799377E-1,5.371284485E-1,1.078929901E0
9.911836179E0,5.576896667E-1,5.520820618E-1,1.034069061E0
9.916841062E0,6.385993958E-1,5.754470825E-1,1.003227234E0
9.921845945E0,7.344627380E-1,5.925369263E-1,9.925460815E-1
9.926881345E0,8.431434631E-1,6.084251404E-1,9.989547729E-1
9.931886228E0,9.528923035E-1,6.180381775E-1,1.026725769E0
9.936891111E0,1.053028107E0,6.308555603E-1,1.069316864E0
9.941895994E0,1.146755219E0,6.415367126E-1,1.118316650E0
9.946900876E0,1.235141754E0,6.468772888E-1,1.158771515E0
9.951936277E0,1.305503845E0,6.361961365E-1,1.194953918E0
9.956941160E0,1.343822479E0,6.084251404E-1,1.224861145E0
9.961946042E0,1.338481903E0,5.446052551E-1,1.250362396E0
9.966950925E0,1.306571960E0,4.530143738E-1,1.266384125E0
9.971955808E0,1.267185211E0,3.496742249E-1,1.291885376E0
9.976991208E0,1.233005524E0,2.388572693E-1,1.322860718E0
9.981996091E0,1.209640503E0,1.355171204E-1,1.346225739E0
9.987000974E0,1.193618774E0,4.499435425E-2,1.364383698E0
9.992005857E0,1.182937622E0,-1.789093018E-2,1.379337311E0
9.997010740E0,1.187210083E0,-4.339218140E-2,1.395225525E0
1.000204614E1,1.200027466E0,-5.727767944E-2,1.410179138E0
1.000705102E1,1.222457886E0,-7.009506226E-2,1.429405212E0
1.001205591E1,1.244754791E0,-7.009506226E-2,1.449565887E0
1.001706079E1,1.269321442E0,-6.689071655E-2,1.457042694E0
1.002206567E1,1.279869080E0,-6.048202515E-2,1.449565887E0
1.002710107E1,1.270389557E0,-6.261825562E-2,1.424064636E0
1.003210595E1,1.240482330E0,-6.582260132E-2,1.378269196E0
1.003711084E1,1.198959351E0,-6.902694702E-2,1.332473755E0
1.004211572E1,1.164913177E0,-8.398056030E-2,1.294021606E0
1.004712060E1,1.155300140E0,-1.361846924E-1,1.275997162E0
1.005215600E1,1.180801392E0,-2.224349976E-1,1.289749146E0
1.005716089E1,1.212844849E0,-3.097534180E-1,1.322860718E0
1.006216577E1,1.237277985E0,-3.662300110E-1,1.349430084E0
1.006717065E1,1.243686676E0,-4.034805298E-1,1.364383698E0
1.007217554E1,1.243686676E0,-4.205703735E-1,1.368656158E0
1.007721094E1,1.250095367E0,-4.419326782E-1,1.369724274E0
1.008221582E1,1.255435944E0,-4.471397400E-1,1.371860504E0
1.008722070E1,1.252231598E0,-4.408645630E-1,1.365451813E0
1.009222558E1,1.245822906E0,-4.227066040E-1,1.349430084E0
1.009723047E1,1.230869293E0,-4.024124146E-1,1.314315796E0
1.010226587E1,1.211776733E0,-3.886604309E-1,1.269588470E0
