"Time (s)","Acceleration x (m/s^2)","Acceleration y (m/s^2)","Acceleration z (m/s^2)"
3.240665000E-2,-9.004573822E-1,5.549776077E0,8.234079361E0
3.738101500E-2,-9.447765350E-1,5.644104004E0,7.944208145E0
4.238589800E-2,-1.001073837E0,5.652488708E0,7.810352325E0
4.739078100E-2,-1.010656357E0,5.647697449E0,7.878328323E0
5.242618100E-2,-1.028623581E0,5.647697449E0,8.062791824E0
5.743106400E-2,-1.019041061E0,5.625238419E0,8.325113297E0
6.243594700E-2,-9.962825775E-1,5.603677750E0,8.611091614E0
6.744083000E-2,-9.615459442E-1,5.560556412E0,8.873113632E0
7.244571200E-2,-9.028530121E-1,5.523424149E0,9.031225204E0
7.745059500E-2,-7.630081177E-1,5.521028519E0,9.010862350E0
8.248599600E-2,-6.444244385E-1,5.464731216E0,8.888685226E0
8.749087800E-2,-6.120834351E-1,5.418016434E0,8.765609741E0
9.249576100E-2,-6.731719971E-1,5.420412064E0,8.564376831E0
9.750064400E-2,-7.138977051E-1,5.410829544E0,8.385902405E0
1.025055270E-1,-7.893600464E-1,5.392862320E0,8.190958023E0
1.075409270E-1,-9.064464569E-1,5.415620804E0,8.053209305E0
1.125458100E-1,-9.890956879E-1,5.491083145E0,8.049615860E0
1.175506930E-1,-1.057371140E0,5.479104996E0,8.093935013E0
1.225555760E-1,-1.053777695E0,5.528215408E0,8.102319717E0
1.275604580E-1,-1.008260727E0,5.573732376E0,8.055604935E0
1.325958590E-1,-9.974803925E-1,5.529413223E0,8.083154678E0
1.376007420E-1,-9.843044281E-1,5.507852554E0,8.162210464E0
1.426056240E-1,-8.920726776E-1,5.499467850E0,8.297563553E0
1.476105070E-1,-7.594146729E-1,5.499467850E0,8.399078369E0
1.526153900E-1,-6.156768799E-1,5.458742142E0,8.345176697E0
1.576507900E-1,-5.545883179E-1,5.452753067E0,8.295167923E0
1.626556730E-1,-5.701599121E-1,5.386873245E0,8.328407288E0
1.676605560E-1,-6.480178833E-1,5.358125687E0,8.436210632E0
1.726654390E-1,-7.737884521E-1,5.341356277E0,8.516464233E0
1.776703220E-1,-9.423809052E-1,5.315004349E0,8.536827087E0
1.827057220E-1,-1.057371140E0,5.322191238E0,8.550003052E0
1.877106050E-1,-1.076536179E0,5.360521317E0,8.517662048E0
1.927154880E-1,-9.950847626E-1,5.365312576E0,8.406265259E0
1.977203710E-1,-9.280071259E-1,5.342554092E0,8.242464066E0
2.027252530E-1,-8.860836029E-1,5.391664505E0,8.054407120E0
2.077606540E-1,-8.980617523E-1,5.391664505E0,7.893899918E0
2.127655370E-1,-9.435787201E-1,5.481500626E0,7.825923920E0
2.177704190E-1,-9.363918304E-1,5.524621964E0,7.837602615E0
2.227753020E-1,-9.495677948E-1,5.548578262E0,7.908273697E0
2.277801850E-1,-9.843044281E-1,5.517435074E0,8.065187454E0
2.328155850E-1,-1.031019211E0,5.493478775E0,8.311937332E0
2.378204680E-1,-9.986782074E-1,5.485094070E0,8.409858704E0
2.428253510E-1,-9.483699799E-1,5.451555252E0,8.500892639E0
2.478302340E-1,-8.264923096E-1,5.457544327E0,8.624267578E0
2.528351170E-1,-7.019195557E-1,5.433588028E0,8.685356140E0
2.578705170E-1,-6.504135132E-1,5.422807693E0,8.812324524E0
2.628754000E-1,-6.480178833E-1,5.458742142E0,8.953367233E0
2.678802830E-1,-6.707763672E-1,5.402444839E0,9.164182663E0
2.728851650E-1,-7.450408936E-1,5.410829544E0,9.386676788E0
2.778900480E-1,-8.324813843E-1,5.447961807E0,9.530414581E0
2.829254490E-1,-9.160289764E-1,5.469522476E0,9.589107513E0
2.879303310E-1,-1.013051987E0,5.522226334E0,9.483699799E0
2.929352140E-1,-1.130437851E0,5.580919266E0,9.393863678E0
2.979400970E-1,-1.240636826E0,5.602479935E0,9.282766342E0
3.029449800E-1,-1.284955978E0,5.651290894E0,9.197721481E0
3.079803800E-1,-1.244230270E0,5.723159790E0,9.091115952E0
3.129852630E-1,-1.196317673E0,5.730346680E0,9.000082016E0
3.179901460E-1,-1.165174484E0,5.653686523E0,8.979719162E0
3.229950290E-1,-1.198713303E0,5.600084305E0,8.983312607E0
3.280304290E-1,-1.268186569E0,5.580919266E0,9.004873276E0
3.330353120E-1,-1.142416000E0,5.629730225E0,9.007268906E0
3.380401950E-1,-7.630081177E-1,5.614158630E0,8.944982529E0
3.430450780E-1,-3.524570465E-1,5.525819778E0,8.785972595E0
3.480499600E-1,-3.982734680E-2,5.528215408E0,8.523651123E0
3.530548430E-1,1.302623749E-1,5.505456924E0,8.367935181E0
3.580597260E-1,2.557334900E-1,5.541391373E0,8.455375671E0
3.630646090E-1,4.665489197E-1,5.462335587E0,8.682960510E0
3.680694920E-1,6.998233795E-1,5.255113602E0,9.070753098E0
3.730743740E-1,6.938343048E-1,5.038608551E0,9.638217926E0
3.781097750E-1,4.473838806E-1,4.984706879E0,1.025359535E1
3.831146580E-1,-5.090713501E-3,4.866123199E0,1.075038910E1
3.881195400E-1,-5.689620972E-1,4.759517670E0,1.115495110E1
3.931244230E-1,-1.132833481E0,4.613683701E0,1.141817093E1
3.981598240E-1,-1.047788620E0,4.388494492E0,1.139780807E1
4.031647060E-1,-4.551696777E-1,4.394483566E0,1.094533348E1
4.082001070E-1,-1.955432892E-1,4.499891281E0,1.039823151E1
4.132049900E-1,-1.931476593E-1,4.646923065E0,9.712482452E0
4.182098720E-1,-1.021137238E-1,4.817012787E0,9.009664536E0
4.232147550E-1,3.084373474E-2,5.009860992E0,8.276002884E0
4.282196380E-1,2.365684509E-1,5.245531082E0,7.633075714E0
4.332245210E-1,5.659675598E-1,5.479104996E0,6.978170395E0
4.382294040E-1,2.066230774E-1,5.997459412E0,6.401123047E0
4.432342870E-1,-6.498146057E-2,6.295415878E0,6.049264908E0
4.482391690E-1,-6.737709045E-2,6.530187607E0,5.766880035E0
4.532745700E-1,5.599784851E-2,6.646076202E0,5.772869110E0
4.583099700E-1,1.242733002E-1,6.680812836E0,6.037286758E0
4.633148530E-1,6.198692322E-2,6.496648788E0,6.414299011E0
4.683197360E-1,2.725028992E-2,6.368482590E0,6.890729904E0
4.733246190E-1,-4.342079163E-2,6.271459579E0,7.358776093E0
4.783295010E-1,-3.383827209E-2,6.180425644E0,7.770824432E0
4.833343840E-1,2.126121521E-2,6.105262756E0,8.137056351E0
4.883392670E-1,1.218776703E-1,6.084899902E0,8.466156006E0
4.933441500E-1,1.122951508E-1,5.971107483E0,8.635047913E0
4.983490330E-1,-1.284656525E-1,6.164854050E0,8.528442383E0
5.033844330E-1,-4.102516174E-2,6.524198532E0,8.127473831E0
5.083893160E-1,-1.464328766E-1,6.434362411E0,7.079984665E0
5.134247160E-1,-1.025030136E0,6.362493515E0,6.111551285E0
5.184295990E-1,-4.324111938E-1,6.866474152E0,6.234926224E0
5.234344820E-1,-5.300331116E-2,7.150056839E0,5.276075363E0
5.284393650E-1,2.653160095E-1,7.524972916E0,4.224992752E0
5.334442470E-1,6.558036804E-2,8.024162292E0,3.688671112E0
5.384796480E-1,-6.444244385E-1,8.517362595E0,3.243383408E0
5.434845310E-1,-6.480178833E-1,8.791362762E0,3.443119049E0
5.484894140E-1,-1.644001007E-1,8.962650299E0,4.415145874E0
5.534942960E-1,3.204154968E-2,9.144418716E0,5.693813324E0
5.584991790E-1,-1.608066559E-1,9.089618683E0,6.670631409E0
5.635345800E-1,-2.326755524E-1,8.841670990E0,7.579174042E0
5.685394620E-1,-3.261051178E-1,8.511373520E0,8.321220398E0
5.735443450E-1,-1.094503403E0,8.016975403E0,8.194551468E0
5.785492280E-1,-2.234224319E0,7.608819962E0,6.407112122E0
5.835541110E-1,-2.592071533E0,7.242288589E0,4.211816788E0
5.885895110E-1,-2.665138245E0,7.224321365E0,2.978666306E0
5.935943940E-1,-2.823249817E0,7.528566360E0,2.520202637E0
5.985992770E-1,-3.000226974E0,7.939117432E0,2.382453918E0
6.036041600E-1,-2.872060776E0,8.205930710E0,2.493850708E0
6.086090420E-1,-2.535774231E0,8.223897934E0,2.899610519E0
6.136444430E-1,-2.358797073E0,7.982238770E0,3.790485382E0
6.186493260E-1,-2.090486526E0,7.667213440E0,4.870016098E0
6.236542080E-1,-1.787738800E0,7.393213272E0,6.155870438E0
6.286590910E-1,-1.707485199E0,7.116817474E0,7.120710373E0
6.336639740E-1,-2.331247330E0,6.726329803E0,7.239294052E0
6.386993740E-1,-4.283685684E0,6.291822433E0,6.221750259E0
6.437042570E-1,-6.538871765E0,6.104064941E0,4.275300980E0
6.487091400E-1,-8.032846451E0,6.137304306E0,2.496246338E0
6.537140230E-1,-8.762016296E0,6.029800415E0,1.523021698E0
6.587189060E-1,-8.956960678E0,6.337339401E0,9.004573822E-1
6.637543060E-1,-8.630256653E0,7.157243729E0,1.500263214E-1
6.687591890E-1,-7.910669327E0,8.468252182E0,-1.298431396E0
6.737640720E-1,-6.481376648E0,9.721466064E0,-2.648967743E0
6.787689550E-1,-5.094007492E0,1.038236046E1,-3.295188904E0
6.837738370E-1,-4.300455093E0,1.049255943E1,-3.283210754E0
6.888092380E-1,-3.841991425E0,1.036559105E1,-2.890626907E0
6.938141210E-1,-3.705440521E0,1.015357780E1,-2.717243195E0
6.988190030E-1,-3.681484222E0,9.968215942E0,-3.180498123E0
7.038238860E-1,-3.747364044E0,9.731048584E0,-3.395805359E0
7.088287690E-1,-5.274877548E0,9.027332306E0,-2.578296661E0
7.138641690E-1,-6.604751587E0,8.474241257E0,-9.633426666E-1
7.188690520E-1,-6.505332947E0,8.420339584E0,7.222824097E-1
7.238739350E-1,-6.340333939E0,8.541318893E0,2.674720764E0
7.288788180E-1,-5.313207626E0,8.439504623E0,4.125574112E0
7.338837010E-1,-2.309686661E0,8.514966965E0,4.155519485E0
7.389191010E-1,-1.205900192E0,8.100822449E0,1.597286224E0
7.439239840E-1,-2.211465836E0,7.281816483E0,-5.983085632E-1
7.489288670E-1,-3.858760834E0,6.763462067E0,-1.770071030E0
7.539337490E-1,-4.745742798E0,6.623317719E0,-2.329151154E0
7.589691500E-1,-4.544509888E0,6.913188934E0,-2.194097519E0
7.639740330E-1,-4.338785172E0,7.332124710E0,-1.579917908E0
7.689483980E-1,-4.101617813E0,7.759445190E0,-1.056772232E0
7.739532810E-1,-4.453475952E0,7.594446182E0,-6.917381287E-2
7.789886810E-1,-5.412326813E0,7.176408768E0,2.109651566E0
7.840240810E-1,-5.714176178E0,7.244684219E0,4.138750076E0
7.889984470E-1,-5.477008820E0,7.694763184E0,4.624763489E0
7.940338470E-1,-4.946676254E0,8.255041122E0,4.760116577E0
7.990387300E-1,-5.300031662E0,8.941089630E0,3.585659027E0
8.040436130E-1,-6.280443192E0,9.400751114E0,1.548175812E0
8.090484960E-1,-6.147485733E0,9.628335953E0,-2.461509705E-1
8.140838960E-1,-6.067232132E0,1.001972198E1,-1.859907150E0
8.190582610E-1,-6.058847427E0,1.043386650E1,-2.745691299E0
8.240631440E-1,-6.014528275E0,1.074979019E1,-2.927759171E0
8.290680270E-1,-6.349916458E0,1.096419907E1,-3.027177811E0
8.341034270E-1,-5.850727081E0,1.112231064E1,-2.417789459E0
8.391083100E-1,-4.739753723E0,1.120945168E1,-1.162179947E0
8.441131930E-1,-4.287279129E0,1.095581436E1,-9.792137146E-2
8.491485930E-1,-4.277696609E0,1.069828415E1,1.264593124E0
8.541534760E-1,-3.862354279E0,1.066714096E1,2.815763474E0
8.591583590E-1,-3.427547455E0,1.054286766E1,4.156717300E0
8.641937590E-1,-2.513015747E0,1.008320618E1,5.771671295E0
8.691986420E-1,-1.116064072E0,9.490587234E0,7.361171722E0
8.742035250E-1,-2.171039581E-1,8.931507111E0,8.187364578E0
8.792084080E-1,7.082080841E-1,8.480230331E0,8.246057510E0
8.842132900E-1,1.547576904E0,7.900787354E0,7.352787018E0
8.892486910E-1,2.031194687E0,7.418367386E0,5.852823257E0
8.942535740E-1,2.055150986E0,7.053333282E0,4.928709030E0
8.992584560E-1,1.250518799E0,7.006618500E0,5.289251328E0
9.042633390E-1,-2.470493317E-1,7.461488724E0,6.330451965E0
9.092682220E-1,-1.670352936E0,7.994216919E0,6.780830383E0
9.142731050E-1,-3.142766953E0,8.282590866E0,6.281641006E0
9.192779880E-1,-4.682258606E0,8.370031357E0,5.368007660E0
9.243133880E-1,-5.594394684E0,8.487417221E0,4.520553589E0
9.293182710E-1,-5.406337738E0,8.931507111E0,3.718616486E0
9.343231540E-1,-4.607994080E0,9.668762207E0,3.149953842E0
9.393280370E-1,-3.588054657E0,1.024580956E1,2.635192871E0
9.443634370E-1,-2.562126160E0,1.038116264E1,1.979089737E0
9.493683200E-1,-9.327983856E-1,1.015237999E1,1.784145355E0
9.543732030E-1,9.872989655E-1,9.575632095E0,2.073717117E0
9.593780850E-1,2.490856171E0,8.876407623E0,2.890028000E0
9.643829680E-1,2.730119705E0,8.553297043E0,4.059694290E0
9.694183690E-1,1.819181442E0,8.617979050E0,5.481800079E0
9.744232510E-1,6.974277496E-1,8.530538559E0,6.619125366E0
9.794281340E-1,-6.498146057E-2,8.142446518E0,7.337215424E0
9.844330170E-1,-4.575653076E-1,7.709136963E0,7.663021088E0
9.894379000E-1,-8.776988983E-1,7.637268066E0,7.873537064E0
9.944733000E-1,-1.574527740E0,7.644454956E0,8.220903397E0
9.994781830E-1,-2.006639481E0,7.657630920E0,8.172990799E0
1.004483066E0,-1.968309402E0,7.783401489E0,8.067583084E0
1.009487949E0,-1.440372467E0,8.195150375E0,7.987329483E0
1.014492831E0,-1.702693939E0,8.283788681E0,6.879949570E0
1.019528232E0,-2.037782669E0,8.108009338E0,4.831686020E0
1.024533115E0,-1.823673248E0,8.057701111E0,2.965490341E0
1.029537997E0,-1.487087250E0,8.205930710E0,1.888055801E0
1.034542880E0,-1.102888107E0,8.578451157E0,1.191526413E0
1.039547763E0,-6.384353638E-1,9.014156342E0,8.633251190E-1
1.044583164E0,-4.312133789E-1,9.435487747E0,7.902584076E-1
1.049588046E0,-3.093357086E-1,9.696311951E0,9.435787201E-1
1.054592929E0,4.401969910E-1,9.719070435E0,1.104085922E0
1.059597812E0,1.352333069E0,9.434289932E0,1.104085922E0
1.064602695E0,1.864698410E0,8.878803253E0,1.309810638E0
1.069638095E0,1.639808655E0,8.278997421E0,1.758991241E0
1.074642978E0,9.178256989E-1,7.885215759E0,1.667957306E0
1.079647861E0,5.959129333E-2,7.735488892E0,9.603481293E-1
1.084652744E0,2.102165222E-1,7.514192581E0,5.569839478E-1
1.089657626E0,4.461860657E-1,7.277025223E0,6.683807373E-1
1.094693027E0,-4.503784180E-1,7.580072403E0,9.771175385E-1
1.099697910E0,-6.827545166E-1,8.048118591E0,1.798519135E0
1.104702792E0,-5.426101685E-1,8.086448669E0,2.356101990E0
1.109707675E0,7.636070251E-2,7.895996094E0,2.289323807E0
1.114712558E0,9.046497345E-1,8.085250854E0,1.753002167E0
1.119747958E0,-4.384002686E-1,8.219106674E0,-4.905052185E-1
1.124752841E0,-5.560855865E0,8.471845627E0,-4.084249496E0
1.129757724E0,-7.696559906E0,8.900363922E0,-6.013929367E0
1.134762607E0,-3.859958649E0,9.352838516E0,-4.715198517E0
1.139767490E0,7.836704254E-1,9.605577469E0,-2.658550262E0
1.144802890E0,2.560329437E0,9.167177200E0,-1.909017563E0
1.149807773E0,1.898237228E0,8.495801926E0,-2.241710663E0
1.154812656E0,1.030420303E0,8.284986496E0,-1.230155945E0
1.159817539E0,3.946800232E-1,8.389196396E0,1.750606537E0
1.164822421E0,-2.425575256E-2,8.156820297E0,3.828516006E0
1.169857822E0,-6.258583069E-2,7.502214432E0,3.621593475E0
1.174862705E0,-8.169097900E-1,6.959903717E0,2.290521622E0
1.179867587E0,-1.818881989E0,6.859287262E0,7.974452972E-1
1.184872470E0,-2.487861633E0,7.523775101E0,-9.573535919E-1
1.189877353E0,-3.173910141E0,8.528142929E0,-2.875055313E0
1.194912753E0,-3.294889450E0,9.302530289E0,-3.740476608E0
1.199917636E0,-2.617225647E0,1.030450249E1,-3.031969070E0
1.204922519E0,-2.960699081E0,1.119747353E1,-2.671726227E0
1.209927402E0,-3.850376129E0,1.116273689E1,-2.702869415E0
1.214932285E0,-3.050535202E0,1.073421860E1,-2.002447128E0
1.219967685E0,-2.782524109E0,9.971809387E0,-1.714073181E0
1.224972568E0,-3.145162582E0,9.513345718E0,-1.072343826E0
1.229977451E0,-3.329626083E0,1.026737022E1,1.847629547E-1
1.234982333E0,-2.278543472E0,9.866401672E0,1.980287552E0
1.239987216E0,-1.823673248E0,9.351640701E0,2.778930664E0
1.245022617E0,-3.130788803E0,8.413152695E0,3.269735336E0
1.250027499E0,-3.941110611E0,7.191980362E0,2.094079971E0
1.255032382E0,-7.701950073E-1,5.620447159E0,1.570934296E0
1.260037265E0,-7.115020752E-1,4.534627914E0,9.852027893E-2
1.265042148E0,-3.272130966E0,4.678066254E0,-1.845533371E0
1.270077548E0,-3.194272995E0,6.128919601E0,-1.709880829E-1
1.275082431E0,-4.017770767E0,7.229112625E0,-6.318473816E-1
1.280087314E0,-9.539997101E0,9.368410110E0,-4.616977692E0
1.285092197E0,-3.385623932E0,9.324090958E0,-4.048315048E0
1.290097080E0,1.462532043E0,9.581621170E0,-1.837148666E0
1.295132480E0,1.832357407E0,1.142625618E1,-2.553142548E0
1.300137363E0,1.573928833E0,1.388626862E1,-3.222421646E0
1.305142246E0,1.351135254E0,1.511343002E1,-3.238891602E0
1.310147128E0,1.383476257E0,1.549523354E1,-2.669330597E0
1.315152011E0,7.968463898E-1,1.553236580E1,-1.899435043E0
1.320156894E0,1.346343994E0,1.580157471E1,-5.480003357E-1
1.325192294E0,1.859907150E0,1.603634644E1,5.222473145E-1
1.330197177E0,1.335563660E0,1.448487663E1,1.457141876E0
1.335202060E0,1.273277283E0,1.254681206E1,2.530982971E0
1.340206943E0,9.813098907E-1,1.171223450E1,2.725028992E0
1.345211826E0,5.468025208E-1,1.138672829E1,2.188707352E0
1.350247226E0,1.098995209E-1,1.091748428E1,1.567340851E0
1.355252109E0,-6.971282959E-1,1.011075592E1,8.501491547E-1
1.360256992E0,-6.384353638E-1,1.017274284E1,4.527740479E-1
1.365261874E0,-6.611938477E-1,1.023263359E1,-1.494274139E-1
1.370266757E0,-1.578121185E0,9.642410278E0,-7.728900909E-1
1.375302158E0,-1.957529068E0,9.286958694E0,-8.231983185E-1
1.380307040E0,-2.318071365E0,9.249826431E0,-7.812747955E-1
1.385311923E0,-2.491455078E0,9.260606766E0,-6.833534241E-1
1.390316806E0,-2.910390854E0,9.201913834E0,-6.522102356E-1
1.395321689E0,-3.285306931E0,9.078838348E0,-4.521751404E-1
1.400357089E0,-3.663516998E0,9.090816498E0,-1.314601898E-1
1.405361972E0,-3.990221024E0,9.086025238E0,1.467323303E-2
1.410366855E0,-3.960275650E0,9.252222061E0,2.994537354E-4
1.415371738E0,-4.022562027E0,9.213891983E0,-8.115196228E-2
1.420376621E0,-4.264520645E0,8.917133331E0,1.057071686E-1
1.425412021E0,-4.612785339E0,8.616781235E0,3.413772583E-1
1.430416904E0,-4.809226990E0,8.598814011E0,3.593444824E-1
1.435421787E0,-4.929906845E0,8.857242584E0,7.222824097E-1
1.440426669E0,-5.029325485E0,9.150407791E0,9.351940155E-1
1.445431552E0,-4.776885986E0,9.343255997E0,1.132833481E0
1.450466953E0,-4.572059631E0,9.563653946E0,1.366107941E0
1.455471835E0,-4.555290222E0,9.856819153E0,1.706287384E0
1.460476718E0,-4.485816956E0,1.024580956E1,2.162355423E0
1.465481601E0,-4.566070557E0,1.059197807E1,2.352508545E0
1.470486484E0,-4.649917603E0,1.068510818E1,2.342926025E0
1.475521884E0,-4.600807190E0,1.054885674E1,2.526191711E0
1.480526767E0,-4.684654236E0,1.017633629E1,3.103239059E0
1.485531650E0,-5.023336411E0,9.976600647E0,3.206251144E0
1.490536533E0,-5.267690659E0,9.790939331E0,3.773715973E0
1.495541415E0,-5.778858185E0,9.696311951E0,3.659923553E0
1.500576816E0,-6.191804886E0,9.467828751E0,2.819356918E0
1.505581699E0,-6.429870605E0,9.082431793E0,2.329750061E0
1.510586581E0,-6.897916794E0,8.693141937E0,1.970705032E0
1.515591464E0,-7.162633896E0,8.512571335E0,2.158761978E0
1.520596347E0,-7.222524643E0,8.475439072E0,2.339332581E0
1.525631747E0,-7.165029526E0,8.433515549E0,2.211465836E0
1.530636630E0,-7.185392380E0,8.213117599E0,2.182718277E0
1.535641513E0,-7.296789169E0,8.040931702E0,2.131212234E0
1.540646396E0,-7.351888657E0,8.036140442E0,1.820978165E0
1.545651279E0,-7.392314911E0,7.954689026E0,1.591297150E0
1.550686679E0,-7.537250519E0,7.824127197E0,1.458339691E0
1.555691562E0,-7.573184967E0,7.571687698E0,1.386470795E0
1.560696445E0,-7.579174042E0,7.403993607E0,1.193922043E0
1.565701328E0,-7.653438568E0,7.262651443E0,1.025030136E0
1.570706210E0,-7.738483429E0,7.144067764E0,8.609294891E-1
1.575741611E0,-7.821132660E0,6.988651276E0,7.462387085E-1
1.580746494E0,-7.725307465E0,6.819759369E0,4.252243042E-1
1.585751376E0,-7.480953217E0,6.569715500E0,6.857490540E-2
1.590756259E0,-7.203359604E0,6.336141586E0,-2.461509705E-1
1.595761142E0,-7.095556259E0,6.146886826E0,-4.569664001E-1
1.600796542E0,-6.944631577E0,6.082504272E0,-8.160114288E-1
1.605801425E0,-6.840721130E0,6.008239746E0,-1.062761307E0
1.610806308E0,-6.801193237E0,5.866897583E0,-1.128641129E0
1.615811191E0,-6.782028198E0,5.726753235E0,-1.063959122E0
1.620816074E0,-6.724533081E0,5.564149857E0,-9.717273712E-1
1.625851474E0,-6.868270874E0,5.523424149E0,-8.770999908E-1
1.630856357E0,-7.119512558E0,5.616554260E0,-9.525623322E-1
1.635861240E0,-7.277624130E0,5.549776077E0,-8.974628448E-1
1.640866122E0,-7.545635223E0,5.203607559E0,-9.513645172E-1
1.645871005E0,-8.223299026E0,4.945178986E0,-9.214191437E-1
1.650906406E0,-8.469749451E0,4.703220367E0,-5.084724426E-1
1.655911289E0,-8.641036987E0,4.384901047E0,-4.162406921E-1
1.660916171E0,-9.012060165E0,4.651714325E0,-2.605247498E-2
1.665921054E0,-8.967741013E0,5.252717972E0,1.034612656E0
1.670925937E0,-8.350267410E0,5.383279800E0,1.691913605E0
1.675961337E0,-8.146638870E0,5.397653580E0,2.025804520E0
1.680966220E0,-7.873836517E0,5.455148697E0,2.347717285E0
1.685971103E0,-8.028055191E0,5.549776077E0,2.323760986E0
1.690975986E0,-7.740879059E0,5.578523636E0,2.074914932E0
1.695980869E0,-7.464183807E0,5.439577103E0,1.974298477E0
1.701016269E0,-7.303976059E0,5.419214249E0,1.823373795E0
1.706021152E0,-6.927862167E0,5.385675430E0,1.757793427E0
1.711026035E0,-6.342729568E0,5.300630569E0,1.768573761E0
1.716030917E0,-5.751308441E0,5.291048050E0,1.628429413E0
1.721035800E0,-5.181447983E0,5.440774918E0,1.422405243E0
1.726071201E0,-4.466651917E0,5.499467850E0,1.351734161E0
1.731076083E0,-3.783298492E0,5.552171707E0,1.069349289E0
1.736080966E0,-3.048139572E0,5.474313736E0,6.827545166E-1
1.741085849E0,-2.398025513E0,5.492280960E0,3.617401123E-1
1.746090732E0,-1.683528900E0,5.555765152E0,2.362689972E-1
1.751095615E0,-9.495677948E-1,5.664466858E0,-7.501316071E-1
1.756131015E0,-2.698078156E-1,6.673625946E0,-1.810796738E0
1.761135898E0,6.102867126E-1,5.802215576E0,-2.150976181E0
1.766140781E0,2.964591980E-2,5.657279968E0,-2.180921555E0
1.771145664E0,-6.540069580E-1,5.803413391E0,-1.942556381E0
1.776150546E0,-1.745815277E0,5.708786011E0,-3.048738480E0
1.781185947E0,-1.991067886E0,5.662071228E0,-2.470493317E0
1.786190830E0,-2.024606705E0,4.890079498E0,-1.119058609E0
1.791195712E0,-2.469894409E0,3.818634033E0,-1.107080460E0
1.796200595E0,-2.315675735E0,4.091735840E0,-6.270561218E-1
1.801205478E0,-2.280939102E0,3.475160599E0,4.581642151E-2
1.806240878E0,-2.390838623E0,3.566194534E0,8.381710052E-1
1.811245761E0,-2.720237732E0,3.125398636E0,7.902584076E-1
1.816250644E0,-2.723831177E0,3.676094055E0,2.350711823E-1
1.821255527E0,-2.655555725E0,4.007888794E0,1.946449280E-2
1.826260410E0,-3.185888290E0,4.467550278E0,-4.869117737E-1
1.831295810E0,-2.957105637E0,4.714000702E0,-1.323585510E0
1.836300693E0,-3.160734177E0,5.146112442E0,-1.165773392E0
1.841305576E0,-2.740600586E0,6.366086960E0,-5.120658875E-2
1.846310458E0,-2.678314209E0,7.540544510E0,9.076442719E-1
1.851315341E0,-2.004243851E0,8.464658737E0,2.532180786E0
1.856350742E0,-1.542186737E0,8.900363922E0,3.219427109E0
1.861355624E0,9.633426666E-1,9.687927246E0,5.871988297E0
1.866360507E0,2.153371811E0,1.159035683E1,8.116693497E0
1.871365390E0,1.059167862E0,1.278487778E1,8.897069931E0
1.876370273E0,2.751680374E0,1.414739227E1,8.694938660E0
1.881405673E0,8.231983185E-1,1.615133667E1,6.151079178E0
1.886410556E0,-6.971282959E-1,1.164785194E1,-2.521999359E0
1.891415439E0,2.501636505E0,1.569856262E1,-7.132987976E-1
1.896420322E0,-4.107606888E0,1.149333382E1,-4.503185272E0
1.901425205E0,2.981660843E0,1.450164604E1,-9.034519196E-1
1.906460605E0,-7.030874252E0,1.009039307E1,-1.506851196E0
1.911465488E0,-5.874683380E0,7.279420853E0,-4.056699753E0
1.916470371E0,-1.764980316E0,9.504961014E0,-1.355926514E0
1.921475253E0,-3.701847076E0,9.325288773E0,1.706886292E-2
1.926480136E0,-6.147485733E0,6.886837006E0,-4.509773254E-1
1.931485019E0,-4.522949219E0,5.635719299E0,-9.944858551E-1
1.936520419E0,-4.472640991E0,5.648895264E0,-1.794027328E0
1.941525302E0,-4.763710022E0,5.739929199E0,-3.671302795E-1
1.946530185E0,-4.501388550E0,5.491083145E0,1.414020538E0
1.951535068E0,-3.746166229E0,5.598886490E0,2.657951355E0
1.956539951E0,-2.077310562E0,5.687225342E0,3.072095871E0
1.961544833E0,-1.144811630E0,6.640087128E0,3.164327621E0
1.966580234E0,-2.494449615E-1,8.000205994E0,3.413173676E0
1.971585117E0,1.698202133E0,8.713504791E0,3.052930832E0
1.976589999E0,3.187385559E0,1.051172447E1,1.505054474E0
1.981594882E0,4.803537369E0,1.296095657E1,1.563747406E0
1.986599765E0,4.965242386E0,1.346853065E1,1.174757004E0
1.991604648E0,4.790361404E0,1.307355118E1,-2.365684509E-2
1.996609531E0,5.140123367E0,1.255399895E1,-6.869468689E-1
2.001644931E0,4.762811661E0,1.216710472E1,-1.405036926E0
2.006649814E0,4.251644135E0,1.175894928E1,-1.910215378E0
2.011654697E0,3.699750900E0,1.165833282E1,-2.658550262E0
2.016659580E0,2.879846573E0,1.167510223E1,-3.436531067E0
2.021694980E0,2.827142715E0,1.187154388E1,-3.691665649E0
2.026699863E0,2.489658356E0,1.209553528E1,-3.817136765E0
2.031735263E0,2.161457062E0,1.298251724E1,-3.954885483E0
2.036740146E0,2.181819916E0,1.369701385E1,-3.832708359E0
2.041745029E0,1.596687317E0,1.430640221E1,-4.048315048E0
2.046749912E0,1.642204285E0,1.502119827E1,-4.587032318E0
2.051754794E0,2.156665802E0,1.481158066E1,-4.664890289E0
2.056790195E0,2.232128143E0,1.430879784E1,-4.789163589E0
2.061795078E0,3.268836975E0,1.453398705E1,-4.686450958E0
2.066799960E0,4.864625931E0,1.488943863E1,-4.679264069E0
2.071804843E0,4.728075027E0,1.459507561E1,-4.258831024E0
2.076809726E0,6.381359100E0,1.402281952E1,-4.139348984E0
2.081845126E0,6.537075043E0,1.359070778E1,-4.786767960E0
2.086850009E0,6.660449982E0,1.320620918E1,-5.378189087E0
2.091854892E0,8.134061813E0,1.255160332E1,-5.572235107E0
2.096859775E0,8.051412582E0,1.202965546E1,-5.684829712E0
2.101864658E0,7.449211121E0,1.156999397E1,-6.272357941E0
2.106900058E0,6.097776413E0,1.094982529E1,-6.380161285E0
2.111904941E0,6.016324997E0,1.033205223E1,-5.848630905E0
2.116909824E0,6.845811844E0,1.015597343E1,-5.320693970E0
2.121914706E0,5.108980179E0,9.687927246E0,-4.585834503E0
2.126919589E0,5.288352966E0,9.597192764E0,-4.032743454E0
2.131954990E0,6.352611542E0,9.659179688E0,-3.331123352E0
2.136959872E0,7.067407608E0,9.433092117E0,-2.356700897E0
2.141964755E0,6.721239090E0,8.817714691E0,-6.821556091E-1
2.146969638E0,6.616130829E0,8.300558090E0,4.551696777E-1
2.151974521E0,7.536651611E0,7.945106506E0,6.432266235E-1
2.157009921E0,7.868146896E0,7.303377151E0,8.154125214E-1
2.162014804E0,8.205631256E0,7.076091766E0,6.911392212E-1
2.167019687E0,8.524250031E0,7.050937653E0,7.654037476E-1
2.172024570E0,8.404468536E0,7.096454620E0,1.131635666E0
2.177029453E0,7.799871445E0,7.037761688E0,8.848857880E-1
2.182034335E0,6.849405289E0,6.715549469E0,9.843044281E-1
2.187069736E0,6.012731552E0,6.040580750E0,1.442768097E0
2.192074619E0,5.720464706E0,5.391664505E0,1.363712311E0
2.197079501E0,5.942060471E0,5.063762665E0,7.917556763E-1
2.202084384E0,5.008363724E0,4.880496979E0,4.252243042E-1
2.207089267E0,1.668256760E0,4.051010132E0,2.039279938E-1
2.212124667E0,2.868766785E-1,3.220026016E0,3.102340698E-1
2.217129550E0,2.561527252E0,1.800315857E0,2.514213562E0
2.222134433E0,5.269187927E0,2.450429916E0,3.267339706E0
2.227139316E0,7.953191757E0,4.690044403E0,3.410778046E0
2.232144199E0,8.482326508E0,6.579298019E0,2.869665146E0
2.237179599E0,7.345001221E0,7.995414734E0,2.268960953E0
2.242184482E0,5.955236435E0,9.592401505E0,1.753002167E0
2.247189365E0,4.188159943E0,1.103966141E1,1.659572601E0
2.252194247E0,3.235298157E0,1.207996368E1,1.411624908E0
2.257199130E0,2.988847733E0,1.274415207E1,6.492156982E-1
2.262234531E0,4.208522797E0,1.255040550E1,4.192352295E-1
2.267239414E0,5.658477783E0,1.148255348E1,4.324111938E-1
2.272244296E0,6.164554596E0,1.070307541E1,2.506427765E-1
2.277249179E0,6.297512054E0,1.015956688E1,-9.672355652E-2
2.282254062E0,6.430469513E0,9.660377502E0,-3.659324646E-1
2.287289462E0,6.647274017E0,9.216287613E0,-4.845161438E-1
2.292294345E0,6.602954865E0,8.641635895E0,-5.515937805E-1
2.297299228E0,6.272357941E0,8.006195068E0,-5.887260437E-1
2.302304111E0,5.703695297E0,7.317750931E0,-7.704944611E-1
2.307308994E0,5.158090591E0,7.147661209E0,-1.318794250E0
2.312344394E0,4.614582062E0,7.418367386E0,-1.971303940E0
2.317349277E0,4.666986465E0,7.444719315E0,-2.105459213E0
2.322354160E0,4.821504593E0,7.571687698E0,-1.618247986E0
2.327359042E0,4.044721603E0,8.149633408E0,-1.012453079E0
2.332363925E0,4.202533722E0,8.276601791E0,-8.639240265E-1
2.337399326E0,4.499591827E0,8.278997421E0,-6.186714172E-1
2.342404208E0,4.412151337E0,8.462263107E0,-6.090888977E-1
2.347409091E0,4.371425629E0,8.894374847E0,-6.174736023E-1
2.352413974E0,4.452877045E0,9.373201370E0,-5.180549622E-1
2.357418857E0,4.725679398E0,9.799324036E0,-6.869468689E-1
2.362454257E0,4.536724091E0,1.028413963E1,-7.812747955E-1
2.367459140E0,4.006391525E0,1.071864700E1,-9.022541046E-1
2.372464023E0,3.406585693E0,1.091987991E1,-1.210092545E0
2.377468906E0,2.349514008E0,1.075697708E1,-1.533203125E0
2.382473789E0,1.063959122E0,1.032127190E1,-1.737730026E0
2.387509189E0,4.761314392E-1,1.008200836E1,-2.067129135E0
2.392514072E0,2.892723083E-1,9.973007202E0,-2.429767609E0
2.397518955E0,4.833183289E-1,9.884368896E0,-2.926561356E0
2.402523837E0,8.339786530E-1,9.854423523E0,-3.362266541E0
2.407528720E0,1.445762634E0,1.016555595E1,-3.785993576E0
2.412564121E0,2.149478912E0,1.063150597E1,-3.906972885E0
2.417569003E0,2.737306595E0,1.093904495E1,-3.855466843E0
2.422573886E0,2.910989761E0,1.115914345E1,-3.601829529E0
2.427578769E0,2.822351456E0,1.130407906E1,-3.286804199E0
2.432583652E0,2.847505569E0,1.128132057E1,-3.009210587E0
2.437619052E0,2.893022537E0,1.108996964E1,-2.914583206E0
2.442623935E0,2.541164398E0,1.044943810E1,-2.589076996E0
2.447628818E0,2.928956985E0,9.625940323E0,-2.560329437E0
2.452633701E0,3.924940109E0,9.185144424E0,-2.694484711E0
2.457638583E0,4.511569977E0,9.162385941E0,-2.628604889E0
2.462673984E0,4.673274994E0,9.243837357E0,-2.468097687E0
2.467678867E0,4.533130646E0,9.351640701E0,-2.807977676E0
2.472683749E0,4.767602921E0,9.046497345E0,-2.321964264E0
2.477688632E0,4.996385574E0,8.640438080E0,-1.317596436E0
2.482693515E0,4.920923233E0,8.570066452E0,-7.561206818E-1
2.487728915E0,4.571460724E0,8.713504791E0,-4.318122864E-1
2.492733798E0,4.451679230E0,8.875209808E0,-3.252067566E-1
2.497738681E0,4.495998383E0,8.909946442E0,-2.940635681E-1
2.502743564E0,4.418140411E0,8.943485260E0,-4.713401794E-1
2.507748447E0,4.298358917E0,8.990200043E0,-7.141971588E-1
2.512783847E0,4.019567490E0,8.975826263E0,-9.333972931E-1
2.517788730E0,3.753652573E0,8.918331146E0,-1.220573425E0
2.522793613E0,3.899785995E0,8.617979050E0,-1.488883972E0
2.527798496E0,4.484020233E0,8.467054367E0,-1.718864441E0
2.532803378E0,4.527141571E0,8.657207489E0,-1.746114731E0
2.537838779E0,4.418140411E0,8.885990143E0,-1.663764954E0
2.542843662E0,4.282787323E0,9.100399017E0,-1.585906982E0
2.547848544E0,4.303150177E0,9.123157501E0,-1.500862122E0
2.552853427E0,4.437305450E0,9.108783722E0,-1.428993225E0
2.557858310E0,4.462459564E0,8.989002228E0,-1.340354919E0
2.562893710E0,4.564273834E0,8.736263275E0,-1.143014908E0
2.567898593E0,4.607395172E0,8.486219406E0,-8.782978058E-1
2.572903476E0,4.510372162E0,8.391592026E0,-6.486167908E-1
2.577908359E0,4.260028839E0,8.320920944E0,-4.940986633E-1
2.582913242E0,4.018369675E0,8.072074890E0,-1.949443817E-1
2.587918124E0,3.782400131E0,7.906776428E0,8.773994446E-2
2.592953525E0,3.412574768E0,7.833709717E0,3.437728882E-1
2.597958408E0,3.270034790E0,7.802566528E0,3.401794434E-1
2.602963290E0,3.329925537E0,7.894798279E0,2.949619293E-1
2.607968173E0,3.687772751E0,8.143644333E0,6.019020081E-2
2.612973056E0,3.983633041E0,8.495801926E0,-4.629554749E-1
2.618008456E0,4.291172028E0,8.650020599E0,-1.281661987E0
2.623013339E0,4.479228973E0,8.891979218E0,-1.953336716E0
2.628018222E0,4.167797089E0,9.000980377E0,-2.884637833E0
2.633023105E0,3.729696274E0,9.046497345E0,-3.748861313E0
2.638027988E0,3.862653732E0,9.109981537E0,-4.227987289E0
2.643063388E0,5.179351807E0,9.198320389E0,-4.248050690E0
2.648068271E0,6.150480270E0,9.039310455E0,-4.033941269E0
2.653073154E0,5.855817795E0,8.552099228E0,-3.545532227E0
2.658078037E0,5.424903870E0,8.130468369E0,-3.071496964E0
2.663082919E0,5.485992432E0,7.852874756E0,-2.837923050E0
2.668118320E0,6.168447495E0,8.043327332E0,-2.019216537E0
2.673123203E0,7.060220718E0,8.883594513E0,1.195119858E0
2.678128085E0,7.226417542E0,9.796928406E0,5.558460236E0
2.683132968E0,6.290325165E0,9.363618851E0,9.292049408E-1
2.688137851E0,7.609718323E0,9.644805908E0,1.502658844E0
2.693173251E0,9.041406631E0,1.036199760E1,2.286928177E0
2.698178134E0,9.353736877E0,1.058958244E1,2.995435715E0
2.703183017E0,8.604503632E0,1.047459221E1,3.391613007E0
2.708187900E0,8.290676117E0,1.043506432E1,3.437129974E0
2.713192783E0,8.027456284E0,1.011554718E1,3.446712494E0
2.718228183E0,7.567794800E0,9.534906387E0,3.307765961E0
2.723233066E0,7.609718323E0,9.339662552E0,2.940336227E0
2.728237949E0,7.777112961E0,9.875984192E0,2.427970886E0
2.733242831E0,7.339012146E0,1.022664452E1,1.737430573E0
2.738247714E0,6.696084976E0,9.982589722E0,1.028623581E0
2.743283115E0,7.614509583E0,1.056562614E1,3.773117065E-1
2.748287997E0,8.482326508E0,1.129808998E1,4.012680054E-1
2.753292880E0,8.980318069E0,1.188471985E1,8.645229340E-1
2.758297763E0,9.521430969E0,1.219225883E1,1.228658676E0
2.763302646E0,9.251922607E0,1.220902824E1,1.903627396E0
2.768338046E0,8.502689362E0,1.211350250E1,2.695083618E0
2.773342929E0,7.681287766E0,1.190867615E1,3.024183273E0
2.778347812E0,7.244384766E0,1.167150879E1,3.206251144E0
2.783352695E0,6.653263092E0,1.149333382E1,2.988248825E0
2.788357578E0,5.824674606E0,1.155082893E1,2.044969559E0
2.793392978E0,5.910917282E0,1.166072845E1,9.950847626E-1
2.798397861E0,6.495151520E0,1.172541046E1,-1.757793427E-1
2.803402744E0,6.426876068E0,1.164994812E1,-1.086717606E0
2.808407626E0,5.874982834E0,1.152327919E1,-1.530807495E0
2.813412509E0,5.712080002E0,1.157718086E1,-2.377063751E0
2.818447910E0,5.385375977E0,1.159155464E1,-3.830312729E0
2.823452792E0,4.398975372E0,1.149812508E1,-3.923742294E0
2.828457675E0,3.629379272E0,1.119028664E1,-3.112222672E0
2.833462558E0,2.607044220E0,1.080848312E1,-2.228534698E0
2.838467441E0,2.193798065E0,1.057520866E1,-1.834753036E0
2.843502841E0,1.840742111E0,9.982589722E0,-1.533203125E0
2.848507724E0,1.754499435E0,9.586412430E0,-1.213386536E0
2.853512607E0,1.875478745E0,9.778961182E0,-8.735065460E-1
2.858517490E0,1.608665466E0,9.890357971E0,-2.689094543E-1
2.863522372E0,5.012855530E-1,9.777763367E0,8.525447845E-1
2.868557773E0,-1.967411041E-1,9.944259644E0,1.064558029E0
2.873562656E0,-6.396331787E-1,9.880775452E0,2.031793594E0
2.878567539E0,-1.396053314E0,9.387575150E0,2.645973206E0
2.883572421E0,-1.884462357E0,8.841670990E0,2.541763306E0
2.888577304E0,-2.284532547E0,8.305349350E0,1.890451431E0
2.893612705E0,-2.911588669E0,7.496225357E0,2.330947876E0
2.898617587E0,-5.023336411E0,6.263074875E0,1.570934296E0
2.903622470E0,-6.105562210E0,5.082927704E0,1.096899033E0
2.908627353E0,-7.035665512E0,3.436830521E0,-7.633075714E-1
2.913632236E0,-7.446216583E0,1.408929825E0,-3.397003174E0
2.918667636E0,-7.917856216E0,-7.067108154E-2,-4.267215729E0
2.923672519E0,-8.105913162E0,-7.686977386E-1,-4.098623276E0
2.928677402E0,-9.142621994E0,-1.061862946E0,-3.707237244E0
2.933682285E0,-1.005356026E1,-1.047489166E0,-2.520801544E0
2.938687167E0,-1.138852501E1,-8.264923096E-2,-7.968463898E-1
2.943722568E0,-1.144931412E1,1.158586502E0,1.420009613E0
2.948727451E0,-1.066534424E1,2.279142380E0,3.111623764E0
2.953732333E0,-1.014579201E1,2.943630219E0,4.258531570E0
2.958737216E0,-9.510051727E0,3.455995560E0,4.834081650E0
2.963742099E0,-8.796752930E0,3.927635193E0,4.696632385E0
2.968777499E0,-7.846286774E0,4.411252975E0,4.166299820E0
2.973782382E0,-6.698181152E0,4.887683868E0,3.613208771E0
2.978787265E0,-5.219778061E0,5.462335587E0,2.231828690E0
2.983792148E0,-4.557685852E0,6.331350327E0,1.203504562E0
2.988797031E0,-4.099222183E0,7.113224030E0,1.064558029E0
2.993832431E0,-2.984655380E0,8.061294556E0,1.497268677E-3
2.998837314E0,-1.216680527E0,9.048892975E0,-1.618247986E0
3.003842197E0,1.785642624E0,1.098695755E1,-4.814317703E0
3.008847080E0,3.865049362E0,1.333317757E1,-7.360572815E0
3.013851962E0,5.337463379E0,1.521734047E1,-8.611690521E0
3.018856845E0,4.669382095E0,1.572251892E1,-7.877729416E0
3.023892246E0,3.972852707E0,1.516613388E1,-4.400173187E0
3.028897128E0,3.076288223E0,1.462981224E1,-1.260101318E0
3.033902011E0,3.476058960E0,1.448008537E1,1.346942902E0
3.038906894E0,3.429344177E0,1.405875397E1,2.596862793E0
3.043911777E0,2.697778702E0,1.326849556E1,2.709457397E0
3.048947177E0,2.260875702E0,1.267108536E1,2.622016907E0
3.053952060E0,1.741323471E0,1.254920769E1,2.533378601E0
3.058956943E0,1.345146179E0,1.241265678E1,1.896440506E0
3.063961826E0,1.635017395E0,1.220423698E1,1.223867416E0
3.068966708E0,1.924589157E0,1.177691650E1,7.474365234E-1
3.074002109E0,1.888654709E0,1.112350845E1,6.288528442E-1
3.079006992E0,1.879072189E0,1.052490044E1,6.935348511E-1
3.084011874E0,1.930578232E0,1.012992096E1,6.623916626E-1
3.089016757E0,2.055150986E0,1.005445862E1,2.374668121E-1
3.094021640E0,2.174633026E0,9.910720825E0,2.545356750E-2
3.099057040E0,1.833555222E0,9.481004715E0,-2.096176147E-3
3.104061923E0,1.189430237E0,8.882396698E0,2.123126984E-1
3.109066806E0,3.611412048E-1,8.282590866E0,4.887084961E-1
3.114071689E0,-4.515762329E-1,7.661224365E0,5.761489868E-1
3.119076572E0,-1.083723068E0,7.292596817E0,5.845336914E-1
3.124111972E0,-1.521823883E0,7.154848099E0,5.569839478E-1
3.129116855E0,-1.908418655E0,7.026981354E0,4.731369019E-1
3.134121738E0,-1.953935623E0,6.998233795E0,-2.233924866E-1
3.139126621E0,-1.983880997E0,6.811374664E0,-9.321994781E-1
3.144131503E0,-2.054552078E0,6.590078354E0,-1.007661819E0
3.149166904E0,-2.873258591E0,6.392438889E0,-9.908924103E-1
3.154171787E0,-3.609615326E0,6.246305466E0,-8.651218414E-1
3.159176669E0,-4.226190567E0,5.948348999E0,-7.968463898E-1
3.164181552E0,-4.796051025E0,5.737533569E0,-6.665840149E-1
3.169186435E0,-5.138326645E0,5.518632889E0,-8.878803253E-1
3.174221835E0,-5.653087616E0,5.219179153E0,-1.845533371E0
3.179226718E0,-5.390766144E0,5.086521149E0,-2.646572113E0
3.184231601E0,-5.304822922E0,5.554567337E0,-2.418987274E0
3.189236484E0,-4.198640823E0,6.477483749E0,-2.739702225E0
3.194241367E0,-4.229784012E0,6.632900238E0,-3.341903687E0
3.199276767E0,-5.030523300E0,5.972305298E0,-2.833131790E0
3.204281650E0,-3.123601913E0,6.136106491E0,-2.314777374E0
3.209286533E0,-4.104013443E0,6.194799423E0,-1.460136414E0
3.214291415E0,-5.044897079E0,5.313806534E0,-1.089113235E0
3.219296298E0,-7.424655914E0,3.807853699E0,1.332569122E0
3.224331699E0,6.746692657E-1,4.808628082E0,6.851501465E-1
3.229336581E0,1.600280762E0,5.287454605E0,-1.926984787E0
3.234341464E0,1.503257751E-1,5.789039612E0,-1.608665466E0
3.239346347E0,2.094678879E0,6.502637863E0,8.094234467E-1
3.244351230E0,3.127794266E0,7.031772614E0,1.938364029E0
3.249386630E0,2.263271332E0,7.455499649E0,2.341728210E0
3.254391513E0,1.391860962E0,7.978645325E0,2.288125992E0
3.259396396E0,1.689817429E0,8.246656418E0,2.223443985E0
3.264401279E0,1.795225143E0,8.177183151E0,1.895242691E0
3.269406162E0,1.445762634E0,9.165979385E0,1.539791107E0
3.274441562E0,1.025629044E0,1.011315155E1,8.525447845E-1
3.279446445E0,1.060365677E0,1.098575974E1,-9.741230011E-1
3.284451328E0,1.484092712E0,1.183441162E1,-2.621417999E0
3.289456210E0,1.694908142E-1,1.214075279E1,-4.651714325E0
3.294461093E0,1.299629211E0,1.367665100E1,-5.353034973E0
3.299496494E0,3.367057800E0,1.538862801E1,-5.662071228E0
3.304501376E0,3.501213074E0,1.640856743E1,-6.448436737E0
3.309506259E0,3.015199661E0,1.665411949E1,-6.077413559E0
3.314511142E0,3.850675583E0,1.674006271E1,-5.662071228E0
3.319516025E0,3.859060287E0,1.660740471E1,-6.028303146E0
3.324551425E0,4.487613678E0,1.581954193E1,-5.884565353E0
3.329556308E0,5.626136780E0,1.466185379E1,-5.307518005E0
3.334561191E0,5.980390549E0,1.342061806E1,-4.129766464E0
3.339566074E0,5.289550781E0,1.176733398E1,-3.093057632E0
3.344570956E0,1.869489670E0,1.034283257E1,-2.427371979E0
3.349606357E0,1.973699570E0,9.727455139E0,-2.131811142E0
3.354611240E0,2.129415512E0,9.088420868E0,-2.131811142E0
3.359616122E0,2.560329437E0,8.747043610E0,-2.801988602E0
3.364621005E0,3.375442505E0,8.712306976E0,-2.956506729E0
3.369625888E0,3.356277466E0,8.548505783E0,-2.994836807E0
3.374661289E0,3.047540665E0,8.528142929E0,-3.513191223E0
3.379666171E0,2.763658524E0,8.344877243E0,-3.678489685E0
3.384671054E0,2.220149994E0,7.512994766E0,-3.668907166E0
3.389675937E0,3.811147690E0,6.512220383E0,-1.869489670E0
3.394680820E0,5.397354126E0,6.230733871E0,-1.520027161E0
3.399716220E0,4.636142731E0,5.703994751E0,-2.123426437E0
3.404721103E0,5.305122375E0,5.126049042E0,-2.167745590E0
3.409725986E0,7.702848434E0,5.358125687E0,-3.148157120E0
3.414730869E0,1.456962204E1,7.724708557E0,-6.335842133E0
3.419735751E0,1.239558792E1,9.383981705E0,-4.297161102E0
3.424771152E0,5.335067749E0,9.446268082E0,-2.730419159E0
3.429776035E0,5.277572632E0,9.064464569E0,-1.500862122E0
3.434780917E0,7.658828735E0,8.706317902E0,-4.761314392E-2
3.439785800E0,7.911268234E0,8.267019272E0,1.555362701E0
3.444790683E0,6.746393204E0,7.922348022E0,2.526191711E0
3.449826083E0,6.218456268E0,7.570489883E0,3.114019394E0
3.454830966E0,6.484371185E0,7.362070084E0,3.661121368E0
3.459835849E0,6.972780228E0,7.842094421E0,3.750957489E0
3.464840732E0,7.785497665E0,8.607198715E0,3.428745270E0
3.469845615E0,7.730398178E0,9.247430801E0,3.420360565E0
3.474850497E0,8.642833710E0,9.063266754E0,3.459888458E0
3.479885898E0,7.940015793E0,8.717098236E0,4.204629898E0
3.484890781E0,7.197669983E0,9.048892975E0,4.772094727E0
3.489895664E0,7.036264420E0,9.514543533E0,4.410354614E0
3.494900546E0,6.784723282E0,9.500169754E0,3.117612839E0
3.499905429E0,6.963197708E0,9.430696487E0,1.891649246E0
3.504940830E0,7.657630920E0,9.242639542E0,1.433185577E0
3.509945712E0,8.065786362E0,9.145616531E0,1.198713303E0
3.514950595E0,7.972356796E0,8.888385773E0,6.576004028E-1
3.519955478E0,8.068181992E0,8.661998749E0,1.859607697E-1
3.524960361E0,7.757947922E0,8.467054367E0,4.940986633E-2
3.529995761E0,7.168922424E0,8.290975571E0,1.467323303E-2
3.535000644E0,6.505931854E0,8.079261780E0,2.542362213E-1
3.540005527E0,5.859411240E0,7.729499817E0,5.174560547E-1
3.545010410E0,5.521926880E0,7.530961990E0,5.653686523E-1
3.550015292E0,5.287155151E0,7.426752090E0,5.617752075E-1
3.555050693E0,5.052682877E0,7.413576126E0,8.369731903E-1
3.560055576E0,4.666088104E0,7.423158646E0,1.369701385E0
3.565060458E0,3.657827377E0,7.600435257E0,1.807802200E0
3.570065341E0,2.337535858E0,8.086448669E0,1.792530060E0
3.575070224E0,2.481273651E0,8.233480453E0,1.437976837E0
3.580105624E0,4.507976532E0,8.257436752E0,4.395980835E-1
3.585110507E0,4.917329788E0,8.440702438E0,-6.246604919E-1
3.590115390E0,4.849054337E0,8.850055695E0,-1.108278275E0
3.595120273E0,5.698904037E0,9.070453644E0,-1.417015076E0
3.600125156E0,5.901334763E0,9.254617691E0,-2.423778534E0
3.605160556E0,4.596614838E0,9.555269241E0,-3.672500610E0
3.610165439E0,3.534751892E0,9.788543701E0,-4.924516678E0
3.615170322E0,2.692987442E0,9.951446533E0,-7.935224533E0
3.620175205E0,1.659872055E0,9.929885864E0,-1.002780724E1
3.625180087E0,1.228958130E0,9.683135986E0,-9.553771973E0
3.630215488E0,7.932529449E-1,9.472620010E0,-8.430820465E0
3.635220371E0,1.191825867E0,9.574434280E0,-7.346199036E0
3.640225253E0,2.067129135E0,9.619951248E0,-6.054655075E0
3.645230136E0,2.683404922E0,9.494180679E0,-4.559482574E0
3.650235019E0,3.303573608E0,9.143220901E0,-3.036760330E0
3.655270419E0,3.738080978E0,8.516164780E0,-1.832357407E0
3.660275302E0,3.962072372E0,8.061294556E0,-1.014848709E0
3.665280185E0,4.218105316E0,7.838500977E0,-4.126472473E-1
3.670285068E0,3.993215561E0,7.752258301E0,5.539894104E-2
3.675289951E0,4.115392685E0,7.592050552E0,3.018493652E-1
3.680325351E0,4.614582062E0,7.643257141E0,4.791259766E-1
3.685330234E0,5.200912476E0,7.895996094E0,5.318298340E-1
3.690335117E0,5.897741318E0,8.190359116E0,4.803237915E-1
3.695339999E0,6.395732880E0,8.443098068E0,3.593444824E-1
3.700344882E0,6.286731720E0,8.468252182E0,3.102340698E-1
3.705380283E0,5.690519333E0,8.379613876E0,2.470493317E-1
3.710385165E0,4.797548294E0,8.329305649E0,-1.386470795E-1
3.715390048E0,3.746465683E0,8.365240097E0,-8.231983185E-1
3.720394931E0,3.002023697E0,8.547307968E0,-1.635017395E0
3.725399814E0,2.795999527E0,8.502988815E0,-2.049161911E0
3.730435214E0,2.840318680E0,8.505384445E0,-2.198888779E0
3.735440097E0,2.839120865E0,8.295766830E0,-2.088689804E0
3.740444980E0,2.819955826E0,8.067283630E0,-2.009634018E0
3.745449863E0,2.901407242E0,8.131965637E0,-2.206075668E0
3.750454746E0,3.105035782E0,8.419141769E0,-2.211765289E0
3.755490146E0,3.448509216E0,8.763813019E0,-2.073118210E0
3.760495029E0,4.536724091E0,9.005771637E0,-1.881467819E0
3.765499912E0,5.553070068E0,8.942287445E0,-1.643402100E0
3.770504794E0,5.742025375E0,8.459867477E0,-1.397850037E0
3.775509677E0,4.700525284E0,8.117591858E0,-1.156190872E0
3.780545078E0,4.575054169E0,7.869644165E0,-1.298431396E0
3.785549960E0,5.124551773E0,8.263425827E0,-1.563148499E0
3.790554843E0,5.063463211E0,8.647624969E0,-1.948545456E0
3.795559726E0,5.113771439E0,8.523351669E0,-1.590698242E0
3.800564609E0,5.283561707E0,8.030151367E0,-1.152597427E0
3.805600009E0,4.638538361E0,7.308168411E0,-9.669361115E-1
3.810604892E0,3.616203308E0,6.653263092E0,-1.411026001E0
3.815609775E0,4.170192719E0,6.689197540E0,-1.998853683E0
3.820614658E0,4.563076019E0,6.618825912E0,-1.750905991E0
3.825619540E0,4.719690323E0,6.576902390E0,-1.523620605E0
3.830654941E0,5.162881851E0,6.876056671E0,-1.680534363E0
3.835659824E0,5.659675598E0,7.109630585E0,-1.675743103E0
3.840664706E0,5.900136948E0,7.249475479E0,-1.670951843E0
3.845669589E0,5.972005844E0,7.431543350E0,-1.664962769E0
3.850674472E0,5.874982834E0,7.524972916E0,-1.360717773E0
3.855709872E0,6.097776413E0,7.722312927E0,-8.986606598E-1
3.860714755E0,6.064237595E0,8.132863998E0,-3.467674255E-1
3.865719638E0,6.010335922E0,8.687152863E0,1.081027985E-1
3.870724521E0,6.283138275E0,9.197122574E0,3.856964111E-1
3.875729404E0,6.861383438E0,9.687927246E0,2.350711823E-1
3.880764804E0,7.122507095E0,1.017274284E1,-8.953666687E-2
3.885769687E0,6.304698944E0,1.066234970E1,-2.868766785E-1
3.890774570E0,5.417716980E0,1.090790176E1,-4.857139587E-1
3.895779453E0,4.831087112E0,1.085280228E1,-7.884616852E-1
3.900784335E0,5.495574951E0,1.104804611E1,-1.536796570E0
3.905819736E0,6.207675934E0,1.107799149E1,-2.980463028E0
3.910824619E0,6.211269379E0,1.073900986E1,-4.528339386E0
3.915829501E0,5.829465866E0,1.091149521E1,-3.875829697E0
3.920834384E0,5.748014450E0,1.143583870E1,-1.858709335E0
3.925839267E0,6.541866302E0,1.155801582E1,1.260700226E-1
3.930844150E0,6.788316727E0,1.151010323E1,2.261774063E0
3.935879550E0,6.182521820E0,1.075218582E1,3.621593475E0
3.940884433E0,5.728849411E0,9.471422195E0,3.607219696E0
3.945889316E0,6.722436905E0,8.613187790E0,2.492652893E0
3.950894199E0,7.884916306E0,8.032546997E0,1.286153793E0
3.955899081E0,7.980741501E0,7.662422180E0,1.655979156E-1
3.960934482E0,7.644454956E0,7.429147720E0,-9.058475494E-1
3.965939365E0,7.023088455E0,7.114421844E0,-1.942556381E0
3.970944247E0,6.269962311E0,6.884441376E0,-2.797197342E0
3.975949130E0,5.426101685E0,6.646076202E0,-3.144563675E0
3.980954013E0,4.464855194E0,6.429571152E0,-3.285606384E0
3.985989414E0,3.721311569E0,6.284635544E0,-2.803186417E0
3.990994296E0,3.889005661E0,6.314580917E0,-2.427371979E0
3.995999179E0,4.250446320E0,6.573308945E0,-1.915006638E0
4.001004062E0,4.196544647E0,6.880847931E0,-1.557159424E0
4.006008945E0,3.359870911E0,7.633674622E0,-1.367904663E0
4.011044345E0,2.639385223E0,8.564077377E0,-1.147806168E0
4.016049228E0,2.613033295E0,9.485795975E0,-1.017244339E0
4.021054111E0,2.933748245E0,1.046980095E1,-1.097497940E0
4.026058994E0,2.809175491E0,1.100133133E1,-1.296035767E0
4.031063876E0,2.627407074E0,1.140229988E1,-1.524818420E0
4.036099277E0,2.909791946E0,1.197335815E1,-1.735334396E0
4.041104160E0,3.528762817E0,1.237432671E1,-1.983282089E0
4.046109042E0,4.180973053E0,1.249171257E1,-2.138998032E0
4.051113925E0,4.466053009E0,1.219106102E1,-1.888654709E0
4.056118808E0,4.497196198E0,1.139870644E1,-1.449356079E0
4.061154208E0,5.035913467E0,1.042069054E1,-9.357929230E-1
4.066159091E0,5.930082321E0,9.485795975E0,-6.258583069E-1
4.071163974E0,6.070226669E0,8.776988983E0,-2.713050842E-1
4.076168857E0,5.606971741E0,8.580846786E0,-1.063060760E-1
4.081173740E0,5.360221863E0,8.468252182E0,-4.521751404E-1
4.086209140E0,5.056276321E0,8.524549484E0,-1.012453079E0
4.091214023E0,3.922544479E0,8.523351669E0,-1.850324631E0
4.096218906E0,3.564697266E0,8.404767990E0,-2.865472794E0
4.101223789E0,3.240089417E0,8.422735214E0,-3.601829529E0
4.106228671E0,3.338310242E0,8.504186630E0,-3.899785995E0
4.111264072E0,3.894994736E0,8.730274200E0,-3.748861313E0
4.116268955E0,4.863428116E0,8.709911346E0,-2.910989761E0
4.121273837E0,6.489162445E0,8.352064133E0,-1.791631699E0
4.126278720E0,7.516288757E0,7.876831055E0,-4.342079163E-1
4.131283603E0,7.586959839E0,7.162034988E0,8.693141937E-1
4.136319003E0,7.370155334E0,6.602056503E0,1.232252121E0
4.141323886E0,7.068605423E0,6.246305466E0,1.064558029E0
4.146328769E0,6.504734039E0,5.932777405E0,5.246429443E-1
4.151333652E0,6.112150192E0,5.769874573E0,-1.973400116E-1
4.156338535E0,6.027105331E0,5.700401306E0,-5.635719299E-1
4.161373935E0,6.462810516E0,5.652488708E0,-8.953666687E-2
4.166378818E0,6.787118912E0,5.391664505E0,-5.420112610E-1
4.171383701E0,6.904504776E0,5.675247192E0,-2.068326950E0
4.176388583E0,5.737234116E0,6.508626938E0,-2.584285736E0
4.181393466E0,4.839471817E0,6.530187607E0,-1.794027328E0
4.186428867E0,5.087419510E0,5.841743469E0,-9.573535919E-1
4.191433749E0,5.445266724E0,5.761489868E0,-7.776813507E-1
4.196438632E0,5.786344528E0,6.174436569E0,-1.144212723E0
4.201443515E0,5.706090927E0,6.473890305E0,-1.658973694E0
4.206448398E0,5.235649109E0,6.698780060E0,-2.052755356E0
4.211483798E0,4.764009476E0,7.042552948E0,-2.356700897E0
4.216488681E0,4.000402451E0,7.748664856E0,-2.026403427E0
4.221493564E0,5.179351807E0,7.038959503E0,-1.960523605E0
4.226498447E0,6.378963470E0,6.548154831E0,-2.756471634E0
4.231503330E0,5.341056824E0,6.895221710E0,-2.803186417E0
4.236538730E0,4.662195206E0,7.213541031E0,-2.453723907E0
4.241543613E0,4.861032486E0,7.333322525E0,-2.298007965E0
4.246548496E0,5.386573792E0,7.453104019E0,-2.438152313E0
4.251553378E0,5.948049545E0,7.461488724E0,-2.636989594E0
4.256558261E0,6.272357941E0,7.439928055E0,-2.511219025E0
4.261593662E0,6.528690338E0,7.431543350E0,-2.695682526E0
4.266568027E0,6.726030350E0,7.455499649E0,-2.974473953E0
4.271572910E0,6.346622467E0,7.831314087E0,-3.164926529E0
4.276608310E0,5.897741318E0,8.215513229E0,-3.441322327E0
4.281613193E0,5.530311584E0,8.531736374E0,-3.680885315E0
4.286648593E0,5.178153992E0,8.973430634E0,-3.918951035E0
4.291622958E0,4.811922073E0,9.169572830E0,-4.072271347E0
4.296658359E0,4.548702240E0,9.270189285E0,-4.154920578E0
4.301663242E0,4.327106476E0,9.272584915E0,-4.098623276E0
4.306668124E0,4.639736176E0,9.443872452E0,-4.002798080E0
4.311703525E0,5.673749924E0,9.538499832E0,-3.629379272E0
4.316708408E0,7.386924744E0,7.979843140E0,-3.113420486E0
4.321713290E0,6.833833694E0,6.907199860E0,-2.493251801E0
4.326748691E0,4.982011795E0,7.266244888E0,-1.982084274E0
4.331723056E0,5.356628418E0,7.181200027E0,-1.973699570E0
4.336727939E0,6.376567841E0,7.038959503E0,-2.121030807E0
4.341763339E0,7.140474319E0,6.838924408E0,-1.797620773E0
4.346768222E0,7.699254990E0,6.354108810E0,-1.576324463E0
4.351773105E0,8.071775436E0,6.144491196E0,-1.325981140E0
4.356777988E0,8.081357956E0,6.217557907E0,-1.145410538E0
4.361782871E0,7.869344711E0,6.248701096E0,-1.389465332E0
4.366787753E0,7.649246216E0,6.452329636E0,-1.579917908E0
4.371792636E0,7.488739014E0,6.548154831E0,-1.714971542E0
4.376828037E0,7.448013306E0,6.764659882E0,-1.888654709E0
4.381832919E0,7.044649124E0,7.255464554E0,-1.900632858E0
4.386868320E0,6.335842133E0,8.044525146E0,-1.533203125E0
4.391873203E0,5.773168564E0,9.283365250E0,-1.146907806E-1
4.396878085E0,5.722860336E0,1.007841492E1,1.672748566E0
4.401882968E0,5.676145554E0,1.044464684E1,2.466300964E0
4.406918369E0,5.674947739E0,1.044704247E1,2.212663651E0
4.411892734E0,6.076215744E0,1.039433861E1,1.511043549E0
4.416928134E0,6.216060638E0,1.037637138E1,8.118190765E-1
4.421933017E0,6.849405289E0,9.973007202E0,-4.491806030E-3
4.426968417E0,7.270736694E0,1.029132652E1,-1.170864105E-1
4.431942783E0,7.029077530E0,1.010955811E1,-1.095102310E0
4.436947665E0,5.813894272E0,1.037158012E1,-1.354728699E0
4.441983066E0,3.708135605E0,1.147896004E1,-1.001672745E0
4.446987949E0,3.040353775E0,1.172181702E1,-7.381534576E-1
4.452023349E0,3.124200821E0,1.128251839E1,-5.899238586E-1
4.457028232E0,3.687772751E0,1.086358261E1,-6.641883850E-1
4.462002597E0,3.986028671E0,1.057401085E1,-1.331970215E0
4.467037997E0,3.647346497E0,1.024820518E1,-2.996034622E0
4.472042880E0,3.021188736E0,9.750213623E0,-5.708786011E0
4.477047763E0,1.510444641E0,9.481004715E0,-7.683982849E0
4.482052646E0,6.402320862E-1,9.158792496E0,-8.578151703E0
4.487057529E0,6.066932678E-1,9.253419876E0,-8.160413742E0
4.492092929E0,8.974628448E-1,9.321695328E0,-7.033868790E0
4.497097812E0,1.947347641E0,9.017749786E0,-6.034292221E0
4.502102695E0,3.377838135E0,8.514966965E0,-5.028726578E0
4.507107578E0,3.899785995E0,8.283788681E0,-3.387420654E0
4.512112460E0,3.764432907E0,8.156820297E0,-1.977293015E0
4.517147861E0,2.969682693E0,8.305349350E0,-7.345600128E-1
4.522152744E0,2.288425446E0,8.342481613E0,2.218952179E-1
4.527157626E0,1.942556381E0,8.184370041E0,-2.880744934E-1
4.532162509E0,1.402641296E0,8.393987656E0,-1.536796570E0
4.537167392E0,6.294517517E-1,8.601209641E0,-2.518405914E0
4.542202792E0,3.395805359E-1,8.882396698E0,-3.204454422E0
4.547207675E0,9.884967804E-1,9.339662552E0,-3.065507889E0
4.552212558E0,1.992864609E0,9.902336121E0,-2.781625748E0
4.557217441E0,3.194572449E0,1.045303154E1,-2.899011612E0
4.562222324E0,4.283985138E0,1.073661423E1,-2.245304108E0
4.567257724E0,5.648895264E0,1.049854851E1,-1.539192200E0
4.572262607E0,6.143293381E0,1.047579002E1,-8.279895782E-1
4.577267490E0,5.579421997E0,1.022664452E1,-6.917381287E-1
4.582272372E0,5.452453613E0,9.944259644E0,-7.537250519E-1
4.587277255E0,5.325485229E0,9.509752274E0,-7.657032013E-1
4.592312656E0,5.297935486E0,8.947078705E0,-9.154300690E-1
4.597317539E0,5.108980179E0,8.407163620E0,-8.902759552E-1
4.602322421E0,4.844263077E0,7.893600464E0,-8.064289093E-1
4.607327304E0,4.645725250E0,7.327333450E0,-7.573184967E-1
4.612332187E0,4.695734024E0,6.934749603E0,-9.813098907E-1
4.617367587E0,4.719690323E0,6.722736359E0,-1.273277283E0
4.622372470E0,4.985605240E0,6.987453461E0,-1.596687317E0
4.627377353E0,5.491981506E0,7.274629593E0,-1.496070862E0
4.632382236E0,5.452453613E0,7.372850418E0,-1.264892578E0
4.637387119E0,5.302726746E0,7.207551956E0,-1.222969055E0
4.642422519E0,5.203308105E0,6.906002045E0,-1.347541809E0
4.647427402E0,5.155694962E0,6.696384430E0,-1.224466324E0
4.652432285E0,5.013154984E0,6.511022568E0,-1.006464005E0
4.657437167E0,4.964044571E0,6.249898911E0,-9.465732574E-1
4.662442050E0,4.925714493E0,6.083702087E0,-1.011255264E0
4.667477451E0,4.983209610E0,6.013031006E0,-1.127443314E0
4.672482333E0,4.893373489E0,5.957931519E0,-1.385871887E0
4.677487216E0,5.098199844E0,6.004646301E0,-1.492477417E0
4.682492099E0,5.313507080E0,6.021415710E0,-1.464927673E0
4.687496982E0,5.132936478E0,6.054954529E0,-1.539192200E0
4.692532382E0,4.980813980E0,6.100471497E0,-1.724554062E0
4.697537265E0,4.838274002E0,6.269063950E0,-1.646995544E0
4.702542148E0,4.932901382E0,6.300207138E0,-1.565544128E0
4.707547031E0,4.910142899E0,6.614933014E0,-1.703292847E0
4.712551914E0,4.207324982E0,7.170419693E0,-1.840742111E0
4.717587314E0,3.183792114E0,7.772621155E0,-1.771268845E0
4.722592197E0,2.492053986E0,8.160413742E0,-1.714073181E0
4.727597080E0,2.278842926E0,8.603605270E0,-1.938962936E0
4.732601962E0,2.205776215E0,9.143220901E0,-2.302799225E0
4.737606845E0,2.218952179E0,9.654388428E0,-2.545955658E0
4.742642246E0,2.652561188E0,1.003409576E1,-2.499240875E0
4.747647128E0,3.282012939E0,1.031408501E1,-2.464504242E0
4.752652011E0,3.720113754E0,1.041470146E1,-2.341129303E0
4.757656894E0,4.194149017E0,1.045183372E1,-2.003644943E0
4.762661777E0,4.690942764E0,1.046500969E1,-1.549972534E0
4.767697177E0,4.832284927E0,1.020628166E1,-1.139421463E0
4.772702060E0,4.710107803E0,9.563653946E0,-1.079530716E0
4.777706943E0,3.976446152E0,8.850055695E0,-1.139421463E0
4.782711826E0,3.605422974E0,8.338888168E0,-1.361915588E0
4.787716708E0,3.591049194E0,8.046920776E0,-1.184938431E0
4.792752109E0,3.685377121E0,8.155622482E0,-7.872638702E-1
4.797756992E0,3.784795761E0,8.350866318E0,-6.581993103E-1
4.802761874E0,4.099821091E0,8.372426987E0,-9.777164459E-1
4.807766757E0,4.003995895E0,8.296964645E0,-1.552368164E0
4.812771640E0,4.047117233E0,8.271810532E0,-2.587879181E0
4.817776523E0,4.045919418E0,8.243062973E0,-3.095453262E0
4.822811923E0,3.746465683E0,8.238271713E0,-2.927759171E0
4.827816806E0,3.511993408E0,8.052909851E0,-2.663341522E0
4.832821689E0,3.266441345E0,7.985832214E0,-2.247699738E0
4.837826572E0,2.849901199E0,8.109207153E0,-2.399822235E0
4.842831455E0,2.724130630E0,8.189161301E0,-2.811571121E0
4.847866855E0,2.842714310E0,8.437108994E0,-2.253688812E0
4.852871738E0,3.517982483E0,8.573659897E0,-1.436180115E0
4.857876621E0,3.989622116E0,8.863231659E0,-1.032815933E0
4.862881503E0,3.872236252E0,9.039310455E0,-8.136157990E-1
4.867886386E0,3.877027512E0,8.912342072E0,-5.396156311E-1
4.872921787E0,4.475635529E0,8.665592194E0,-5.587806702E-1
4.877926669E0,5.010759354E0,8.679965973E0,-8.196048737E-1
4.882931552E0,5.077836990E0,8.857242584E0,-1.017244339E0
4.887936435E0,4.600208282E0,8.902759552E0,-1.092706680E0
4.892941318E0,3.835103989E0,8.780582428E0,-1.467323303E0
4.897976718E0,3.284408569E0,8.693141937E0,-1.808401108E0
4.902981601E0,1.758092880E0,7.880424500E0,-1.663764954E0
4.907986484E0,2.440547943E0,7.273431778E0,-2.675319672E0
4.912991367E0,3.654533386E0,8.016975403E0,-3.343101501E0
4.917996249E0,4.499591827E0,8.340085983E0,-3.143365860E0
4.923031650E0,5.323089600E0,8.276601791E0,-2.082700729E0
4.928036533E0,5.285957336E0,8.226293564E0,-2.188108444E0
4.933041415E0,4.837076187E0,7.921150208E0,-1.632621765E0
4.938046298E0,4.071073532E0,7.851676941E0,-1.133432388E0
4.943051181E0,3.357475281E0,8.135259628E0,-1.560752869E0
4.948086581E0,3.139772415E0,8.665592194E0,-2.343524933E0
4.953091464E0,3.855466843E0,9.188737869E0,-2.728023529E0
4.958096347E0,4.795152664E0,9.896347046E0,-2.950517654E0
4.963101230E0,5.651290894E0,1.062072563E1,-3.270034790E0
4.968106113E0,6.230434418E0,1.089233017E1,-3.408981323E0
4.973141513E0,6.115743637E0,1.080968094E1,-3.238891602E0
4.978146396E0,5.029924393E0,1.109236526E1,-3.359870911E0
4.983151279E0,4.073469162E0,1.116752815E1,-3.277221680E0
4.988156162E0,3.704542160E0,1.049854851E1,-4.045919418E0
4.993161044E0,3.371849060E0,9.649597168E0,-3.935720444E0
4.998196445E0,3.706937790E0,8.094833374E0,-3.210443497E0
5.003201328E0,2.623813629E0,7.600435257E0,-2.754076004E0
5.008206210E0,1.784444809E0,7.989425659E0,-1.946149826E0
5.013211093E0,2.611835480E0,7.588457108E0,-1.948545456E0
5.018215976E0,2.325557709E0,8.173589706E0,-2.424976349E0
5.023251376E0,3.250869751E0,8.409559250E0,-2.596263885E0
5.028256259E0,3.597038269E0,8.872814178E0,-2.800790787E0
5.033261142E0,4.203731537E0,8.925518036E0,-2.686100006E0
5.038266025E0,5.114969254E0,8.664394379E0,-2.559131622E0
5.043270908E0,5.470420837E0,8.907550812E0,-2.306392670E0
5.048306308E0,5.256011963E0,9.763389587E0,-2.244106293E0
5.053311191E0,4.961648941E0,9.978996277E0,-2.416591644E0
5.058316074E0,5.283561707E0,1.036439323E1,-1.440971375E0
5.063320956E0,6.016324997E0,1.066474533E1,-6.845512390E-1
5.068325839E0,7.122507095E0,1.094024277E1,-1.302623749E-1
5.073361240E0,7.280319214E0,1.169306946E1,6.072921753E-1
5.078366122E0,8.029851913E0,1.211589813E1,8.980617523E-1
5.083371005E0,8.580547333E0,1.297173691E1,1.532604218E0
5.088375888E0,9.048593521E0,1.360148811E1,1.825769424E0
5.093380771E0,9.119264603E0,1.408151245E1,2.035387039E0
5.098416171E0,9.155199051E0,1.394136810E1,2.186311722E0
5.103421054E0,8.909646988E0,1.361346626E1,2.501037598E0
5.108425937E0,8.424831390E0,1.287591171E1,2.744194031E0
5.113430820E0,6.860185623E0,1.181524658E1,3.141569138E0
5.118435703E0,5.828268051E0,1.086957169E1,3.314952850E0
5.123471103E0,6.860185623E0,1.111153030E1,2.838521957E0
5.128475986E0,8.762315750E0,1.038834953E1,1.481098175E0
5.133480869E0,1.009967613E1,9.953842163E0,4.102516174E-2
5.138485751E0,1.061922836E1,1.017394066E1,-5.096702576E-1
5.143490634E0,1.083693123E1,9.922698975E0,-1.120256424E0
5.148526035E0,1.083932686E1,1.030689812E1,-1.171762466E0
5.153530917E0,1.017034721E1,1.001253510E1,-9.214191437E-1
5.158535800E0,8.556591034E0,9.059673309E0,6.300506592E-1
5.163540683E0,7.864553452E0,8.143644333E0,1.853319168E0
5.168545566E0,6.842218399E0,7.686378479E0,2.259378433E0
5.173580966E0,5.822278976E0,7.731895447E0,2.432762146E0
5.178585849E0,4.426525116E0,7.230310440E0,2.999029160E0
5.183590732E0,3.389816284E0,6.959903717E0,4.470245361E0
5.188595615E0,3.618598938E0,7.269838333E0,4.890378952E0
5.193600497E0,3.688970566E0,7.881622314E0,4.619972229E0
5.198635898E0,3.723707199E0,7.681587219E0,3.803661346E0
5.203640781E0,3.569488525E0,8.116394043E0,4.076463699E0
5.208645664E0,4.464855194E0,1.011674500E1,5.123952866E0
5.213650546E0,6.522701263E0,1.225214958E1,2.999029160E0
5.218655429E0,8.233181000E0,1.448727226E1,-8.983612061E-4
5.223660312E0,8.167301178E0,1.505952835E1,1.761386871E0
5.228665195E0,6.332248688E0,1.366706848E1,4.820905685E0
5.233670078E0,2.751680374E0,1.172181702E1,6.528091431E0
5.238674960E0,1.491279602E0,9.931083679E0,6.500541687E0
5.243679843E0,1.373893738E0,7.445917130E0,5.041303635E0
5.248715244E0,4.174385071E-1,6.422384262E0,4.014177322E0
5.253720126E0,4.042625427E-2,5.626136780E0,3.663516998E0
5.258725009E0,4.018669128E-1,4.843364716E0,3.250570297E0
5.263729892E0,1.131036758E0,4.225591660E0,2.667533875E0
5.268765292E0,1.747312546E0,3.662918091E0,2.359695435E0
5.273800693E0,2.538768768E0,3.234399796E0,2.076112747E0
5.278805576E0,3.278419495E0,2.847805023E0,1.811395645E0
5.283810458E0,3.642555237E0,2.607044220E0,1.572132111E0
5.288815341E0,3.582664490E0,2.688495636E0,1.342151642E0
5.293820224E0,3.389816284E0,3.545831680E0,1.421207428E0
5.298825107E0,3.461685181E0,4.692440033E0,1.561351776E0
5.303829990E0,3.992017746E0,5.760292053E0,1.584110260E0
5.308865390E0,4.511569977E0,6.605649948E0,1.390064240E0
5.313870273E0,4.698129654E0,7.208749771E0,1.333766937E0
5.318875156E0,5.224868774E0,7.923545837E0,1.005865097E0
5.323880039E0,5.306320190E0,8.536527634E0,3.773117065E-1
5.328915439E0,5.293144226E0,8.989002228E0,6.857490540E-2
5.333920322E0,5.223670959E0,9.476213455E0,-2.174034119E-1
5.338925205E0,4.801141739E0,9.898742676E0,-5.575828552E-1
5.343930087E0,4.185764313E0,1.005206299E1,-6.102867126E-1
5.348934970E0,3.626983643E0,9.866401672E0,-6.402320862E-1
5.353970371E0,3.367057800E0,9.856819153E0,-2.150077820E-1
5.358975253E0,3.094255447E0,1.010117340E1,-1.530208588E-1
5.363980136E0,2.754076004E0,1.029851341E1,-7.189884186E-1
5.368985019E0,2.906198502E0,1.019669914E1,-4.342079163E-1
5.373989902E0,3.453300476E0,9.921501160E0,-1.913509369E-1
5.379025302E0,4.264820099E0,9.460641861E0,2.003345490E-1
5.384030185E0,5.140123367E0,9.066860199E0,1.476306915E0
5.389035068E0,5.390167236E0,8.636844635E0,2.912786484E0
5.394039951E0,5.188934326E0,8.216711044E0,4.224992752E0
5.399044833E0,4.852647781E0,7.824127197E0,6.063638687E0
5.404080234E0,4.648120880E0,7.806159973E0,7.185392380E0
5.409085117E0,4.443294525E0,8.055305481E0,7.159040451E0
5.414089999E0,4.311534882E0,8.541318893E0,6.925466537E0
5.419094882E0,4.213314056E0,9.201913834E0,6.732917786E0
5.424099765E0,3.996809006E0,9.897544861E0,6.134309769E0
5.429135165E0,3.577873230E0,1.086118698E1,4.925115585E0
5.434140048E0,3.164926529E0,1.196736908E1,4.111200333E0
5.439144931E0,2.464504242E0,1.321818733E1,3.681484222E0
5.444149814E0,1.183441162E0,1.432317162E1,3.142766953E0
5.449154697E0,-1.356525421E-1,1.493735123E1,2.364486694E0
5.454190097E0,-6.300506592E-1,1.428364372E1,1.478702545E0
5.459194980E0,-6.132812500E-1,1.325531960E1,6.599960327E-1
5.464199863E0,-1.787738800E-1,1.233839226E1,2.542362213E-1
5.469204746E0,4.461860657E-1,1.126455116E1,6.156768799E-1
5.474209628E0,1.614654541E0,9.753807068E0,1.129240036E0
5.479245029E0,3.167022705E0,9.032123566E0,1.886857986E0
5.484249912E0,4.184566498E0,8.594022751E0,2.478279114E0
5.489254794E0,4.775987625E0,7.675598145E0,1.982683182E0
5.494259677E0,5.765981674E0,6.368482590E0,4.635543823E-1
5.499264560E0,6.149282455E0,5.755500793E0,1.775760651E-1
5.504299960E0,6.513118744E0,5.586908340E0,2.769947052E-1
5.509304843E0,5.289550781E0,4.953563690E0,3.329925537E-1
5.514309726E0,4.973627090E0,4.295064926E0,1.023832321E0
5.519314609E0,5.470420837E0,3.782699585E0,1.794626236E0
5.524319492E0,5.800718307E0,3.369752884E0,2.211465836E0
5.529354892E0,6.647274017E0,3.678489685E0,2.644775391E0
5.534359775E0,6.916482925E0,4.353757858E0,2.742996216E0
5.539364658E0,6.948823929E0,5.092510223E0,2.212663651E0
5.544369540E0,6.942834854E0,5.817787170E0,1.525417328E0
5.549374423E0,7.105737686E0,6.402021408E0,9.998760223E-1
5.554409824E0,7.175210953E0,6.979068756E0,1.008260727E0
5.559414706E0,6.690095901E0,7.625589371E0,1.402042389E0
5.564419589E0,6.067831039E0,8.138853073E0,1.835351944E0
5.569424472E0,5.756399155E0,8.312536240E0,2.256982803E0
5.574429355E0,5.372200012E0,8.425130844E0,2.245004654E0
5.579464755E0,5.085023880E0,8.426328659E0,2.362091064E0
5.584469638E0,4.636142731E0,8.275403976E0,2.375267029E0
5.589474521E0,4.139348984E0,7.984634399E0,2.527389526E0
5.594514402E0,3.851873398E0,7.728302002E0,2.726226807E0
5.599519285E0,3.659324646E0,7.580072403E0,2.915182114E0
5.604554685E0,3.414970398E0,7.524972916E0,2.969083786E0
5.609559568E0,3.019990921E0,7.704345703E0,2.892423630E0
5.614564451E0,2.525592804E0,7.924743652E0,2.601654053E0
5.619569333E0,2.064733505E0,8.251447678E0,2.450729370E0
5.624574216E0,1.714971542E0,8.741054535E0,2.473487854E0
5.629609617E0,1.593093872E0,9.333673477E0,2.407608032E0
5.634614499E0,1.725751877E0,9.780158997E0,2.253389359E0
5.639619382E0,2.001249313E0,1.020029259E1,2.277345657E0
5.644624265E0,2.402217865E0,1.039793205E1,2.305793762E0
5.649629148E0,2.660945892E0,1.042548180E1,2.387245178E0
5.654664548E0,2.725328445E0,1.023982048E1,2.410003662E0
5.659669431E0,2.985254288E0,9.822082520E0,2.323760986E0
5.664674314E0,3.249671936E0,9.348047256E0,2.167146683E0
5.669679197E0,3.309562683E0,8.864429474E0,1.616451263E0
5.674684079E0,3.339508057E0,8.331701279E0,9.387874603E-1
5.679719480E0,3.419761658E0,7.904380798E0,5.713577271E-1
5.684724363E0,3.597038269E0,7.472269058E0,1.452350616E-1
5.689729245E0,3.883016586E0,7.024585724E0,-2.186012268E-1
5.694734128E0,3.954885483E0,6.617328644E0,-4.354057312E-1
5.699739011E0,4.005193710E0,6.114845276E0,-6.737709045E-1
5.704774412E0,3.768026352E0,5.772270203E0,-8.998584747E-1
5.709779294E0,3.437728882E0,5.476709366E0,-1.095102310E0
5.714784177E0,3.049936295E0,5.353334427E0,-1.433784485E0
5.719789060E0,2.562725067E0,5.382081985E0,-1.668556213E0
5.724793943E0,2.314777374E0,5.412027359E0,-1.788038254E0
5.729829343E0,2.277645111E0,5.615655899E0,-2.041975021E0
5.734834226E0,2.440547943E0,5.968711853E0,-2.313579559E0
5.739839109E0,2.619022369E0,6.336141586E0,-2.563922882E0
5.744843992E0,2.785219193E0,6.616430283E0,-2.601055145E0
5.749848874E0,3.176605225E0,6.822154999E0,-2.474086761E0
5.754853757E0,3.289199829E0,7.333322525E0,-2.295612335E0
5.759889158E0,3.374244690E0,7.975051880E0,-2.131811142E0
5.764894040E0,3.963270187E0,8.422735214E0,-1.754499435E0
5.769898923E0,4.430118561E0,8.762615204E0,-9.765186310E-1
5.774903806E0,4.615779877E0,9.142023087E0,-2.257881165E-1
5.779939206E0,4.944879532E0,9.637918472E0,9.567546844E-1
5.784944089E0,5.583015442E0,1.023862267E1,2.312980652E0
5.789948972E0,5.275177002E0,1.077973557E1,2.862478256E0
5.794953855E0,4.389392853E0,1.112590408E1,3.193075180E0
5.799958738E0,4.007589340E0,1.123700142E1,3.589252472E0
5.804963620E0,3.772817612E0,1.145141029E1,3.824922562E0
5.809999021E0,3.410179138E0,1.171582794E1,3.941110611E0
5.815003904E0,3.385025024E0,1.166072845E1,3.944704056E0
5.820008787E0,3.405387878E0,1.158077431E1,3.909967422E0
5.825013669E0,3.254463196E0,1.159754372E1,3.915956497E0
5.830018552E0,3.071496964E0,1.164156342E1,3.989023209E0
5.835053953E0,2.813966751E0,1.163677216E1,3.912363052E0
5.840058835E0,2.428569794E0,1.166791534E1,3.887208939E0
5.845063718E0,2.165050507E0,1.175056458E1,3.917154312E0
5.850068601E0,2.073118210E0,1.179967499E1,3.839296341E0
5.855073484E0,1.998853683E0,1.194461060E1,3.588054657E0
5.860108884E0,2.117437363E0,1.201647949E1,3.475460052E0
5.865113767E0,2.168643951E0,1.201049042E1,3.364063263E0
5.870118650E0,2.280040741E0,1.188112640E1,3.206251144E0
5.875123533E0,2.694185257E0,1.170025635E1,2.940336227E0
5.880128415E0,3.042749405E0,1.163347816E1,2.533378601E0
5.885163816E0,3.465278625E0,1.171223450E1,2.080904007E0
5.890168699E0,3.728498459E0,1.172181702E1,1.591297150E0
5.895173581E0,3.867444992E0,1.159754372E1,1.173559189E0
5.900178464E0,4.139348984E0,1.158197212E1,8.309841156E-1
5.905183347E0,4.458866119E0,1.162868690E1,5.006866455E-1
5.910218747E0,4.900560379E0,1.181165314E1,1.715869904E-1
5.915223630E0,5.144914627E0,1.165114594E1,-5.839347839E-2
5.920228513E0,5.232055664E0,1.140948677E1,-2.868766785E-1
5.925233396E0,5.123353958E0,1.106481552E1,-5.276374817E-1
5.930238279E0,4.996385574E0,1.072224045E1,-6.318473816E-1
5.935273679E0,4.906549454E0,1.035241508E1,-7.285709381E-1
5.940278562E0,4.807130814E0,1.001612854E1,-6.821556091E-1
5.945283445E0,4.618175507E0,9.674751282E0,-7.273731232E-1
5.950288328E0,4.413349152E0,9.429498672E0,-7.204856873E-1
5.955293210E0,4.035139084E0,9.132440567E0,-6.857490540E-1
5.960328611E0,3.794378281E0,8.883594513E0,-6.498146057E-1
5.965333494E0,3.924940109E0,8.806934357E0,-6.342430115E-1
5.970338376E0,3.990819931E0,8.723087311E0,-7.228813171E-1
5.975343259E0,4.179775238E0,8.727878571E0,-7.097053528E-1
5.980348142E0,4.261226654E0,8.820110321E0,-6.605949402E-1
5.985383542E0,4.130964279E0,8.745845795E0,-7.621097565E-1
5.990357908E0,4.071073532E0,8.759021759E0,-9.262104034E-1
5.995362790E0,4.044721603E0,8.725482941E0,-1.157388687E0
6.000398191E0,4.194149017E0,8.589231491E0,-1.434982300E0
6.005433591E0,4.451679230E0,8.465856552E0,-1.615852356E0
6.010438474E0,4.634944916E0,8.355657578E0,-1.703292847E0
6.015443357E0,4.862230301E0,8.085250854E0,-1.767675400E0
6.020417722E0,5.362617493E0,7.941513062E0,-1.816785812E0
6.025422605E0,5.773168564E0,7.761840820E0,-1.758092880E0
6.030458005E0,6.076215744E0,7.548929214E0,-1.518829346E0
6.035493406E0,6.253192902E0,7.329729080E0,-1.193323135E0
6.040498288E0,6.337039948E0,7.141672134E0,-7.405490875E-1
6.045503171E0,6.393337250E0,7.056926727E0,-2.976570129E-1
6.050508054E0,6.532283783E0,7.060520172E0,1.284656525E-1
6.055512937E0,6.347820282E0,7.119213104E0,3.653335571E-1
6.060517820E0,6.315479279E0,7.178804398E0,7.830715179E-1
6.065553220E0,6.250797272E0,7.271036148E0,1.076536179E0
6.070558103E0,6.113348007E0,7.496225357E0,1.156789780E0
6.075562986E0,6.090589523E0,7.676795959E0,1.355327606E0
6.080567869E0,5.955236435E0,7.905578613E0,1.463130951E0
6.085603269E0,5.777959824E0,8.118789673E0,1.455944061E0
6.090608152E0,5.505157471E0,8.204732895E0,1.445163727E0
6.095613035E0,5.291946411E0,8.226293564E0,1.369701385E0
6.100617917E0,5.065858841E0,8.207128525E0,1.237043381E0
6.105653318E0,4.892175674E0,8.125677109E0,1.072942734E0
6.110658201E0,4.805932999E0,7.983436584E0,9.998760223E-1
6.115663083E0,4.677766800E0,7.917556763E0,9.627437592E-1
6.120667966E0,4.555889130E0,7.866050720E0,1.025030136E0
6.125672849E0,4.470844269E0,7.794181824E0,1.087316513E0
6.130677732E0,4.310337067E0,7.715126038E0,1.070547104E0
6.135713132E0,4.163305283E0,7.507005692E0,1.058568954E0
6.140718015E0,4.011182785E0,7.174013138E0,1.154394150E0
6.145722898E0,3.763235092E0,6.693988800E0,1.132833481E0
6.150758298E0,3.515586853E0,6.236722946E0,1.100492477E0
6.155732663E0,3.391014099E0,5.893249512E0,1.026227951E0
6.160737546E0,3.442520142E0,5.730346680E0,9.256114960E-1
6.165772947E0,3.582664490E0,5.766281128E0,9.088420868E-1
6.170777829E0,3.838697433E0,5.841743469E0,9.531612396E-1
6.175782712E0,4.126173019E0,5.918403625E0,9.914913177E-1
6.180787595E0,4.313930511E0,5.974700928E0,9.603481293E-1
6.185822995E0,4.601406097E0,6.155271530E0,9.639415741E-1
6.190827878E0,4.878999710E0,6.416395187E0,9.004573822E-1
6.195832761E0,5.081430435E0,6.650867462E0,8.082256317E-1
6.200868162E0,5.233253479E0,6.861682892E0,6.755676270E-1
6.205842527E0,5.391365051E0,7.050937653E0,5.521926880E-1
6.210877927E0,5.565048218E0,7.241090775E0,4.360046387E-1
6.215882810E0,5.638114929E0,7.406389236E0,3.988723755E-1
6.220887693E0,5.633323669E0,7.596841812E0,4.395980835E-1
6.225892576E0,5.600982666E0,7.679191589E0,5.593795776E-1
6.230927976E0,5.602180481E0,7.818138123E0,6.288528442E-1
6.235932859E0,5.580619812E0,7.949897766E0,6.432266235E-1
6.240937742E0,5.519531250E0,8.014579773E0,7.210845947E-1
6.245942624E0,5.493179321E0,8.037338257E0,8.154125214E-1
6.250947507E0,5.424903870E0,8.022964478E0,8.046321869E-1
6.255952390E0,5.296737671E0,7.864852905E0,8.214015961E-1
6.260987790E0,5.241638184E0,7.758247375E0,8.872814178E-1
6.265992673E0,5.209297180E0,7.673202515E0,9.088420868E-1
6.270997556E0,5.073045731E0,7.599237442E0,9.938869476E-1
6.276032956E0,4.799943924E0,7.444719315E0,1.009458542E0
6.281007322E0,4.602603912E0,7.269838333E0,1.058568954E0
6.286012204E0,4.490009308E0,7.017398834E0,1.123250961E0
6.291017087E0,4.533130646E0,6.812572479E0,1.284656525E0
6.296052488E0,4.596614838E0,6.765857697E0,1.433185577E0
6.301057370E0,4.674173355E0,6.746692657E0,1.620044708E0
6.306062253E0,4.778383255E0,6.828144073E0,1.743419647E0
6.311067136E0,4.904153824E0,6.907199860E0,1.820978165E0
6.316072019E0,4.898164749E0,6.824550629E0,1.921594620E0
6.321076902E0,5.035913467E0,6.791011810E0,2.219850540E0
6.326081785E0,5.248825073E0,6.741901398E0,2.610038757E0
6.331086667E0,5.257209778E0,6.600858688E0,3.054128647E0
6.336091550E0,5.306320190E0,6.455923080E0,3.403591156E0
6.341096433E0,5.325485229E0,6.331350327E0,3.798870087E0
6.346131833E0,5.241638184E0,6.094482422E0,4.607994080E0
6.351136716E0,5.163780212E0,6.011833191E0,5.324886322E0
6.356141599E0,5.172464371E0,6.127721786E0,6.036088943E0
6.361146482E0,4.845460892E0,6.173238754E0,6.659851074E0
6.366181882E0,4.614582062E0,6.242712021E0,6.979368210E0
6.371186765E0,4.418140411E0,6.422384262E0,7.139875412E0
6.376222165E0,4.062688828E0,6.537374496E0,7.211744308E0
6.381227048E0,3.865049362E0,6.592473984E0,7.218931198E0
6.386231931E0,3.513191223E0,6.562528610E0,7.129095078E0
6.391267331E0,3.167022705E0,6.514616013E0,6.914686203E0
6.396272214E0,2.922967911E0,6.464307785E0,6.805984497E0
6.401307615E0,2.627407074E0,6.442747116E0,6.783226013E0
6.406281980E0,2.483669281E0,6.448736191E0,6.712554932E0
6.411286863E0,2.386646271E0,6.537374496E0,6.728126526E0
6.416322263E0,2.211765289E0,6.626911163E0,6.695785522E0
6.421327146E0,2.136602402E0,6.666439056E0,6.728126526E0
6.426332029E0,2.134206772E0,6.696384430E0,6.673027039E0
6.431336912E0,2.163852692E0,6.768253326E0,6.589179993E0
6.436372312E0,2.134206772E0,6.883243561E0,6.431068420E0
6.441377195E0,2.083898544E0,7.003025055E0,6.202585220E0
6.446382078E0,2.092283249E0,7.079685211E0,6.039682388E0
6.451386960E0,2.155467987E0,7.120410919E0,6.000154495E0
6.456391843E0,2.140195847E0,7.174013138E0,6.006143570E0
6.461396726E0,2.200984955E0,7.281816483E0,6.009737015E0
6.466432126E0,2.354305267E0,7.436334610E0,6.112749100E0
6.471437009E0,2.488460541E0,7.596841812E0,6.294816971E0
6.476441892E0,2.620220184E0,7.765434265E0,6.486167908E0
6.481446775E0,2.751680374E0,7.924743652E0,6.696983337E0
6.486451658E0,2.633396149E0,7.937919617E0,6.951818466E0
6.491456540E0,2.429767609E0,7.807357788E0,7.153051376E0
6.496491941E0,2.248897552E0,7.605226517E0,7.400699615E0
6.501496824E0,2.086294174E0,7.432741165E0,7.548030853E0
6.506501706E0,1.922193527E0,7.303377151E0,7.588756561E0
6.511506589E0,1.909017563E0,7.196771622E0,7.574382782E0
6.516511472E0,1.976095200E0,7.018596649E0,7.471370697E0
6.521546872E0,1.888654709E0,6.811374664E0,7.287206650E0
6.526551755E0,1.832357407E0,6.654460907E0,7.124303818E0
6.531556638E0,1.968908310E0,6.489461899E0,7.107534409E0
6.536561521E0,2.008436203E0,6.302602768E0,7.054830551E0
6.541566404E0,2.073118210E0,6.120534897E0,7.069204330E0
6.546571287E0,2.280040741E0,5.933975220E0,7.251272202E0
6.551606687E0,2.513614655E0,5.768676758E0,7.538448334E0
6.556611570E0,2.801988602E0,5.644104004E0,7.816341400E0
6.561616453E0,3.279617310E0,5.635719299E0,8.042428970E0
6.566651853E0,3.696157455E0,5.663269043E0,8.352363586E0
6.571656736E0,4.079458237E0,5.812995911E0,8.726081848E0
6.576661619E0,4.451679230E0,5.971107483E0,8.991697311E0
6.581697019E0,4.634944916E0,6.069328308E0,9.360324860E0
6.586701902E0,4.713701248E0,6.126523972E0,9.584316254E0
6.591706785E0,4.589427948E0,6.152875900E0,9.854722977E0
6.596711667E0,4.346271515E0,6.062141418E0,9.836755753E0
6.601716550E0,4.153722763E0,5.838150024E0,9.759197235E0
6.606721433E0,3.972852707E0,5.552171707E0,9.608272552E0
6.611726316E0,3.672201157E0,5.243135452E0,9.069555283E0
6.616761716E0,3.295188904E0,5.011058807E0,8.364341736E0
6.621766599E0,2.916978836E0,4.801441193E0,7.643856049E0
6.626771482E0,2.665737152E0,4.754726410E0,7.156644821E0
6.631776365E0,2.454921722E0,4.704418182E0,6.841619492E0
6.636781247E0,2.242908478E0,4.734363556E0,6.670631409E0
6.641816648E0,1.773664474E0,4.767902374E0,6.816764832E0
6.646821531E0,1.234947205E0,4.736759186E0,6.803588867E0
6.651826413E0,7.513294220E-1,4.737957001E0,6.611938477E0
6.656831296E0,5.264396667E-1,4.839771271E0,6.506530762E0
6.661836179E0,2.605247498E-2,4.789463043E0,6.632301331E0
6.666871579E0,-2.171039581E-1,4.771495819E0,6.617927551E0
6.671876462E0,-3.665313721E-1,4.772693634E0,6.560432434E0
6.676881345E0,-5.653686523E-1,4.670879364E0,6.492156982E0
6.681886228E0,-6.540069580E-1,4.540616989E0,6.452629089E0
6.686891111E0,-6.204681396E-1,4.356153488E0,6.765258789E0
6.691926511E0,-4.575653076E-1,4.296262741E0,6.996137619E0
6.696931394E0,-5.018844604E-1,4.162107468E0,7.095556259E0
6.701936277E0,-6.204681396E-1,4.003097534E0,6.963796616E0
6.706941160E0,-8.205032349E-1,3.855766296E0,6.896718979E0
6.711946042E0,-1.044195175E0,3.815040588E0,7.156644821E0
6.716950925E0,-1.217878342E0,3.727600098E0,7.629482269E0
6.721986326E0,-1.277769089E0,3.665313721E0,8.012483597E0
6.726991208E0,-1.495471954E0,3.481149673E0,8.548805237E0
6.731996091E0,-1.451152802E0,3.524271011E0,9.631031036E0
6.737000974E0,-1.412822723E0,3.674896240E0,1.014459419E1
6.742005857E0,-1.467922211E0,3.496721268E0,1.093814659E1
6.747041257E0,-1.779354095E0,3.111324310E0,1.235186768E1
6.752046140E0,-2.062936783E0,2.874156952E0,1.317686272E1
6.757051023E0,-2.454322815E0,2.670528412E0,1.405186653E1
6.762055906E0,-2.745391846E0,2.353406906E0,1.493285942E1
6.767060788E0,-2.659149170E0,2.295911789E0,1.403270149E1
6.772096189E0,-2.874456406E0,1.870986938E0,1.370959091E1
6.777101072E0,-2.814865112E0,1.868591309E0,1.298521233E1
6.782105954E0,-2.466300964E0,2.416891098E0,1.237821960E1
6.787110837E0,-1.946748734E0,3.144563675E0,1.139301682E1
6.792115720E0,-1.204702377E0,3.956382751E0,1.011584663E1
6.797151120E0,-1.284656525E-1,5.003871918E0,9.088720322E0
6.802156003E0,6.078910828E-1,5.830963135E0,8.252046585E0
6.807160886E0,1.011255264E0,6.514616013E0,7.593547821E0
6.812165769E0,6.602954865E-1,7.023387909E0,7.026082993E0
6.817170652E0,-6.587982178E-1,7.153650284E0,6.844015121E0
6.822206052E0,-1.561351776E0,7.801368713E0,7.351589203E0
6.827210935E0,-2.018617630E0,8.437108994E0,7.766033173E0
6.832215818E0,-1.724254608E0,7.417169571E0,6.945829391E0
6.837220701E0,-2.271356583E0,7.114421844E0,7.313558578E0
6.842225583E0,-3.181097031E0,7.777412415E0,7.594745636E0
6.847260984E0,-4.178277969E0,7.881622314E0,8.669784546E0
6.852265867E0,-4.711006165E0,7.413576126E0,1.101720238E1
6.857270749E0,-4.280092239E0,6.864078522E0,1.316847801E1
6.862275632E0,-3.762935638E0,6.591276169E0,1.464688110E1
6.867280515E0,-3.956682205E0,6.427175522E0,1.543564224E1
6.872315915E0,-4.341180801E0,6.404417038E0,1.561531448E1
6.877320798E0,-5.485393524E0,6.306196213E0,1.587973213E1
6.882325681E0,-5.310811996E0,6.643680573E0,1.474270630E1
6.887330564E0,-3.888406754E0,7.595643997E0,1.280104828E1
6.892365964E0,-2.548950195E0,8.445493698E0,1.143134689E1
6.897340329E0,-1.530208588E0,9.093212128E0,1.064378357E1
6.902375730E0,-9.699306488E-1,9.713081360E0,9.938570023E0
6.907411130E0,-6.564025879E-1,1.001972198E1,8.944982529E0
6.912416013E0,-6.516113281E-1,1.005086517E1,7.992120743E0
6.917390378E0,-9.507656097E-1,9.929885864E0,7.349193573E0
6.922395261E0,-1.410427094E0,9.655586243E0,6.913488388E0
6.927430662E0,-2.006639481E0,9.228265762E0,6.623916626E0
6.932435544E0,-2.656753540E0,8.869220734E0,6.531684875E0
6.937440427E0,-3.224218369E0,8.583242416E0,6.627510071E0
6.942445310E0,-3.598834991E0,8.414350510E0,6.796401978E0
6.947450193E0,-3.812046051E0,8.258634567E0,7.032072067E0
6.952485593E0,-3.931528091E0,8.147237778E0,7.218931198E0
6.957490476E0,-3.945901871E0,8.019371033E0,7.379138947E0
6.962495359E0,-3.933923721E0,7.916358948E0,7.795978546E0
6.967500242E0,-3.783298492E0,7.711532593E0,8.156221390E0
6.972535642E0,-3.554515839E0,7.425554276E0,8.305948257E0
6.977540525E0,-3.332021713E0,7.135683060E0,8.405067444E0
6.982545408E0,-3.080480576E0,6.873661041E0,8.397880554E0
6.987580808E0,-2.739402771E0,6.704769135E0,8.397880554E0
6.992585691E0,-2.344423294E0,6.528989792E0,8.475738525E0
6.997560056E0,-2.114442825E0,6.288228989E0,8.496101379E0
7.002595456E0,-2.010232925E0,6.161260605E0,8.585937500E0
7.007600339E0,-2.143190384E0,5.957931519E0,8.851552963E0
7.012605222E0,-2.455520630E0,5.780654907E0,9.309118271E0
7.017610105E0,-2.679512024E0,5.713577271E0,9.305524826E0
7.022645505E0,-2.823249817E0,5.723159790E0,8.894674301E0
7.027650388E0,-3.008611679E0,5.652488708E0,8.540420532E0
7.032655271E0,-2.913984299E0,5.607271194E0,8.059198380E0
7.037660154E0,-2.840019226E0,5.554567337E0,7.805561066E0
7.042665037E0,-2.695083618E0,5.594095230E0,7.666614532E0
7.047700437E0,-2.517807007E0,5.676445007E0,7.612712860E0
7.052705320E0,-2.411201477E0,5.793830872E0,7.623493195E0
7.057710203E0,-2.378860474E0,5.908821106E0,7.752857208E0
7.062715085E0,-2.302499771E0,6.050163269E0,7.857965469E0
7.067719968E0,-2.225839615E0,6.223546982E0,7.947801590E0
7.072755369E0,-2.164751053E0,6.400823593E0,7.968164444E0
7.077760251E0,-2.423179626E0,6.429571152E0,7.946603775E0
7.082765134E0,-2.584884644E0,6.491857529E0,7.793582916E0
7.087770017E0,-2.774139404E0,6.525396347E0,7.501316071E0
7.092774900E0,-3.121206284E0,6.558935165E0,7.275228500E0
7.097810300E0,-3.422756195E0,6.543363571E0,7.035665512E0
7.102815183E0,-3.693462372E0,6.579298019E0,6.782028198E0
7.107820066E0,-4.009386063E0,6.647274017E0,6.608345032E0
7.112824949E0,-4.339982986E0,6.614034653E0,6.490959167E0
7.117829831E0,-4.508575439E0,6.678417206E0,6.329254150E0
7.122865232E0,-4.353158951E0,6.964694977E0,5.985780716E0
7.127870115E0,-4.469047546E0,7.050937653E0,5.717769623E0
7.132874997E0,-4.728973389E0,7.020992279E0,5.783649445E0
7.137879880E0,-4.970632553E0,7.017398834E0,5.997758865E0
7.142884763E0,-5.258108139E0,6.925167084E0,6.123529434E0
7.147920163E0,-5.366809845E0,6.819759369E0,6.068429947E0
7.152925046E0,-5.303625107E0,6.720340729E0,5.901933670E0
7.157929929E0,-5.134733200E0,6.554143906E0,5.986978531E0
7.162934812E0,-4.823600769E0,6.424779892E0,6.112749100E0
7.167939695E0,-4.727775574E0,6.242712021E0,6.353210449E0
7.172975095E0,-4.439102173E0,6.154073715E0,6.176233292E0
7.177979978E0,-4.121980667E0,6.193601608E0,5.796825409E0
7.182984861E0,-3.973451614E0,6.090888977E0,5.540493011E0
7.187989744E0,-4.087244034E0,5.856117249E0,5.482997894E0
7.192994626E0,-4.168695450E0,5.636917114E0,5.317699432E0
7.198030027E0,-4.202234268E0,5.529413223E0,5.267690659E0
7.203034910E0,-4.115991592E0,5.507852554E0,5.273679733E0
7.208039792E0,-4.069276810E0,5.434785843E0,5.397953033E0
7.213044675E0,-3.784496307E0,5.428796768E0,5.651889801E0
7.218049558E0,-3.792881012E0,5.385675430E0,5.754901886E0
7.223084958E0,-4.075265884E0,5.307817459E0,5.868394852E0
7.228089841E0,-4.057298660E0,5.398851395E0,5.828866959E0
7.233094724E0,-4.133958817E0,5.386873245E0,5.352436066E0
7.238099607E0,-4.393585205E0,5.415620804E0,4.917928696E0
7.243104490E0,-4.825996399E0,5.319795609E0,4.689445496E0
7.248139890E0,-5.038908005E0,5.197618484E0,4.572059631E0
7.253144773E0,-4.761314392E0,5.269487381E0,4.594818115E0
7.258149656E0,-4.895170212E0,5.109279633E0,4.691841125E0
7.263154538E0,-5.047292709E0,4.981113434E0,4.743347168E0
7.268159421E0,-4.878700256E0,4.959552765E0,4.619972229E0
7.273164304E0,-5.255712509E0,4.852947235E0,4.937093735E0
7.278199704E0,-5.704593658E0,4.621768951E0,5.746517181E0
7.283204587E0,-5.959428787E0,4.399274826E0,6.246904373E0
7.288209470E0,-6.006143570E0,4.196844101E0,7.035665512E0
7.293214353E0,-5.895944595E0,4.068977356E0,7.412677765E0
7.298219236E0,-6.051660538E0,4.088142395E0,7.546833038E0
7.303254636E0,-6.352312088E0,4.142942429E0,7.664218903E0
7.308259519E0,-6.258882523E0,4.216009140E0,7.671405792E0
7.313264402E0,-6.185815811E0,4.261526108E0,7.658229828E0
7.318269285E0,-5.960626602E0,4.526243210E0,7.089567184E0
7.323274167E0,-5.790836334E0,4.878101349E0,6.097177505E0
7.328279050E0,-5.831562042E0,5.039806366E0,5.451854706E0
7.333314451E0,-5.552471161E0,5.295839310E0,5.110776901E0
7.338319333E0,-5.192228317E0,5.519830704E0,4.899961472E0
7.343324216E0,-4.758918762E0,5.862106323E0,4.920324326E0
7.348329099E0,-4.348367691E0,6.240316391E0,5.153898239E0
7.353364499E0,-4.260927200E0,6.570913315E0,5.413524628E0
7.358369382E0,-4.240564346E0,6.734714508E0,5.520130157E0
7.363374265E0,-4.313631058E0,6.886837006E0,5.697406769E0
7.368379148E0,-4.507377625E0,6.939540863E0,5.881570816E0
7.373384031E0,-4.594818115E0,7.001827240E0,6.085199356E0
7.378388913E0,-4.784072876E0,7.074893951E0,6.257684708E0
7.383424314E0,-4.961050034E0,7.185991287E0,6.352012634E0
7.388429197E0,-5.165876389E0,7.338113785E0,6.254091263E0
7.393434079E0,-5.366809845E0,7.502214432E0,5.998956680E0
7.398438962E0,-5.552471161E0,7.619600296E0,5.726154327E0
7.403474363E0,-5.768077850E0,7.745071411E0,5.666263580E0
7.408479245E0,-5.943857193E0,7.824127197E0,5.449459076E0
7.413484128E0,-5.871089935E0,7.751060486E0,5.311710358E0
7.418489011E0,-5.594394684E0,7.456697464E0,5.159887314E0
7.423493894E0,-5.119161606E0,7.184793472E0,5.049688339E0
7.428529294E0,-4.652313232E0,6.952716827E0,5.159887314E0
7.433534177E0,-4.180673599E0,6.770648956E0,5.475811005E0
7.438539060E0,-3.543735504E0,6.614933014E0,6.076814651E0
7.443543943E0,-2.981061935E0,6.334943771E0,6.573608398E0
7.448548826E0,-2.420783997E0,6.092086792E0,6.737709045E0
7.453584226E0,-2.006639481E0,5.881271362E0,6.993741989E0
7.458589109E0,-1.667957306E0,5.547380447E0,6.853597641E0
7.463593992E0,-1.596088409E0,5.222772598E0,6.760467529E0
7.468598874E0,-1.604473114E0,4.910442352E0,6.814369202E0
7.473603757E0,-1.544582367E0,4.638538361E0,6.367584229E0
7.478639158E0,-1.596088409E0,4.418439865E0,5.996561050E0
7.483644040E0,-1.614055634E0,4.177679062E0,5.857614517E0
7.488648923E0,-1.835651398E0,4.019866943E0,5.774066925E0
7.493653806E0,-2.082101822E0,3.961174011E0,5.774066925E0
7.498658689E0,-2.179124832E0,3.944404602E0,5.739330292E0
7.503694089E0,-2.150377274E0,4.034240723E0,5.898340225E0
7.508698972E0,-2.242609024E0,4.237569809E0,6.022912979E0
7.513703855E0,-2.456718445E0,4.463956833E0,5.979791641E0
7.518708738E0,-2.517807007E0,4.860134125E0,6.006143570E0
7.523713620E0,-2.516609192E0,5.310213089E0,6.048067093E0
7.528749021E0,-2.669929504E0,5.804611206E0,6.216959000E0
7.533753904E0,-3.040952682E0,6.275053024E0,6.384353638E0
7.538758787E0,-3.367956161E0,6.704769135E0,6.319971085E0
7.543763669E0,-3.637165070E0,7.064113617E0,6.031297684E0
7.548768552E0,-4.084848404E0,7.336915970E0,5.921098709E0
7.553803953E0,-4.495399475E0,7.566896439E0,5.695011139E0
7.558808835E0,-4.727775574E0,7.645652771E0,5.271284103E0
7.563813718E0,-4.873908997E0,7.682785034E0,5.083227158E0
7.568818601E0,-5.018545151E0,7.617204666E0,4.902357101E0
7.573823484E0,-5.216184616E0,7.438730240E0,4.678665161E0
7.578858884E0,-5.308416367E0,7.157243729E0,4.500190735E0
7.583863767E0,-5.429096222E0,6.787418365E0,4.263322830E0
7.588868650E0,-5.447063446E0,6.418790817E0,3.969858170E0
7.593873533E0,-5.403942108E0,6.078910828E0,3.963869095E0
7.598878415E0,-5.282064438E0,5.841743469E0,4.248949051E0
7.603913816E0,-5.122755051E0,5.717170715E0,4.712203979E0
7.608918699E0,-4.899961472E0,5.672851562E0,5.304523468E0
7.613923581E0,-4.448684692E0,5.671653748E0,5.774066925E0
7.618928464E0,-3.906373978E0,5.768676758E0,6.136705399E0
7.623933347E0,-3.402393341E0,5.889656067E0,6.529289246E0
7.628938230E0,-3.055326462E0,6.080108643E0,6.863180161E0
7.633973630E0,-2.728622437E0,6.181623459E0,7.070402145E0
7.638978513E0,-1.957529068E0,6.336141586E0,7.465381622E0
7.643983396E0,-1.207098007E0,6.497846603E0,7.680988312E0
7.648988279E0,-9.783153534E-1,6.575704575E0,7.514492035E0
7.654023679E0,-8.444595337E-1,6.618825912E0,7.351589203E0
7.659028562E0,-6.252593994E-1,6.641284943E0,7.227315903E0
7.664033445E0,-6.420288086E-1,6.598463058E0,7.187788010E0
7.669038328E0,-6.599960327E-1,6.662845612E0,7.003324509E0
7.674043210E0,-8.645229340E-1,6.716747284E0,6.961400986E0
7.679078611E0,-1.089712143E0,6.704769135E0,7.021291733E0
7.684083494E0,-1.162778854E0,6.695186615E0,7.057226181E0
7.689088376E0,-1.092107773E0,6.729923248E0,7.215337753E0
7.694093259E0,-1.123250961E0,6.642482758E0,7.349193573E0
7.699098142E0,-1.269384384E0,6.477483749E0,7.543239594E0
7.704133542E0,-1.502658844E0,6.386449814E0,7.891504288E0
7.709138425E0,-1.644001007E0,6.369680405E0,8.042428970E0
7.714143308E0,-1.736232758E0,6.207975388E0,8.109506607E0
7.719148191E0,-1.782947540E0,6.074119568E0,8.129869461E0
7.724153074E0,-2.001848221E0,5.906425476E0,7.994516373E0
7.729188474E0,-2.182718277E0,5.629730225E0,7.782802582E0
7.734193357E0,-2.362390518E0,5.325784683E0,7.364765167E0
7.739198240E0,-2.663940430E0,5.114070892E0,7.095556259E0
7.744203122E0,-2.933149338E0,5.014652252E0,6.808080673E0
7.749208005E0,-3.063711166E0,4.988300323E0,6.366386414E0
7.754212888E0,-2.965490341E0,5.128145218E0,6.063638687E0
7.759248288E0,-2.837623596E0,5.336565018E0,5.801616669E0
7.764253171E0,-2.691490173E0,5.505456924E0,5.816888809E0
7.769258054E0,-2.698677063E0,5.603677750E0,5.814493179E0
7.774262937E0,-2.853195190E0,5.699203491E0,5.774066925E0
7.779267820E0,-3.129590988E0,5.796226501E0,5.845636368E0
7.784303220E0,-3.445514679E0,5.797424316E0,5.783649445E0
7.789308103E0,-3.698253632E0,5.765083313E0,5.776462555E0
7.794312986E0,-4.060892105E0,5.745918274E0,5.681835175E0
7.799317869E0,-4.338785172E0,5.608469009E0,5.478206635E0
7.804322751E0,-4.363939285E0,5.530611038E0,5.117963791E0
7.809358152E0,-4.351961136E0,5.578523636E0,4.818510056E0
7.814363035E0,-4.310037613E0,5.572534561E0,4.518157959E0
7.819367917E0,-4.204629898E0,5.432390213E0,4.300455093E0
7.824372800E0,-4.045320511E0,5.226366043E0,4.296861649E0
7.829377683E0,-4.058496475E0,4.868518829E0,4.466651917E0
7.834413083E0,-3.999803543E0,4.598112106E0,4.526542664E0
7.839417966E0,-3.851573944E0,4.180074692E0,4.604400635E0
7.844422849E0,-3.861156464E0,3.714424133E0,4.949071884E0
7.849427732E0,-3.803661346E0,3.338609695E0,5.762088776E0
7.854432615E0,-3.933923721E0,3.055027008E0,7.003324509E0
7.859468015E0,-4.203432083E0,2.835826874E0,8.302354813E0
7.864472898E0,-5.023336411E0,2.642978668E0,9.963724136E0
7.869477781E0,-5.712978363E0,2.767551422E0,1.119447899E1
7.874482663E0,-6.857490540E0,2.958003998E0,1.273516846E1
7.879487546E0,-8.078363419E0,3.318246841E0,1.221561623E1
7.884522947E0,-8.564376831E0,3.761138916E0,1.088664055E1
7.889527829E0,-8.893775940E0,4.064186096E0,9.148611069E0
7.894532712E0,-9.359426498E0,4.329801559E0,7.811550140E0
7.899537595E0,-9.720867157E0,4.551397324E0,6.692192078E0
7.904542478E0,-9.357030869E0,4.721187592E0,5.550075531E0
7.909577878E0,-9.289953232E0,4.809825897E0,4.467849731E0
7.914582761E0,-9.258810043E0,4.837375641E0,4.100419998E0
7.919587644E0,-8.545211792E0,4.794254303E0,4.139947891E0
7.924592527E0,-7.898691177E0,4.698429108E0,4.102815628E0
7.929597410E0,-7.504909515E0,4.727176666E0,4.622367859E0
7.934632810E0,-6.964994431E0,4.670879364E0,5.442272186E0
7.939637693E0,-6.337938309E0,4.649318695E0,6.296014786E0
7.944642576E0,-5.986978531E0,4.624164581E0,6.627510071E0
7.949647458E0,-5.975000381E0,4.490308762E0,6.455024719E0
7.954652341E0,-6.177431107E0,4.319021225E0,6.042078018E0
7.959687742E0,-6.423881531E0,4.016273499E0,5.825273514E0
7.964692624E0,-6.496948242E0,3.564996719E0,6.136705399E0
7.969697507E0,-6.447837830E0,3.077785492E0,6.853597641E0
7.974702390E0,-6.352312088E0,2.557035446E0,7.544437408E0
7.979707273E0,-6.230134964E0,1.994361877E0,7.925043106E0
7.984742673E0,-6.336740494E0,1.345445633E0,8.115495682E0
7.989747556E0,-6.643081665E0,7.636070251E-1,8.153825760E0
7.994752439E0,-6.869468689E0,2.775936127E-1,8.252046585E0
7.999757322E0,-6.948225021E0,-1.293640137E-1,8.608695984E0
8.004762204E0,-6.883842468E0,-3.329925537E-1,8.759620667E0
8.009797605E0,-6.736511230E0,-5.051784515E-1,8.723686218E0
8.014802488E0,-6.664642334E0,-5.015850067E-1,8.565574646E0
8.019807370E0,-6.567619324E0,-4.932003021E-1,8.217309952E0
8.024812253E0,-6.573608398E0,-5.195522308E-1,7.836404800E0
8.029817136E0,-6.662246704E0,-5.734539032E-1,7.544437408E0
8.034852537E0,-6.710159302E0,-6.573009491E-1,7.200963974E0
8.039857419E0,-6.844314575E0,-7.495326996E-1,6.773643494E0
8.044862302E0,-7.038061142E0,-8.369731903E-1,6.573608398E0
8.049867185E0,-7.274030685E0,-7.878627777E-1,6.802391052E0
8.054872068E0,-7.421062469E0,-7.267742157E-1,7.186590195E0
8.059907468E0,-7.558811188E0,-7.722911835E-1,7.898691177E0
8.064912351E0,-8.007692337E0,-8.989601135E-1,9.105489731E0
8.069917234E0,-8.572761536E0,-1.054676056E0,1.059587097E1
8.074922117E0,-9.170171738E0,-1.118160248E0,1.215812111E1
8.079926999E0,-9.502864838E0,-9.756202698E-1,1.318764305E1
8.084962400E0,-9.677745819E0,-6.273555756E-1,1.359460068E1
8.089967283E0,-9.717273712E0,-8.504486084E-2,1.334785080E1
8.094972165E0,-9.445369720E0,7.276725769E-1,1.233060646E1
8.099977048E0,-9.089918137E0,1.535898209E0,1.119328117E1
8.104981931E0,-8.647026062E0,2.164152145E0,1.027276039E1
8.110017331E0,-8.343080521E0,2.690891266E0,9.438182831E0
8.115022214E0,-8.107110977E0,3.045444489E0,8.588333130E0
8.120027097E0,-7.929834366E0,3.288301468E0,7.706142426E0
8.125031980E0,-7.707340240E0,3.427248001E0,6.980566025E0
8.130036863E0,-7.462985992E0,3.391313553E0,6.488563538E0
8.135072263E0,-7.194974899E0,3.242784500E0,6.163057327E0
8.140077146E0,-6.807182312E0,2.981960297E0,6.139101028E0
8.145082029E0,-6.313982010E0,2.608242035E0,6.224145889E0
8.150086912E0,-5.805210114E0,2.171339035E0,6.517311096E0
8.155091794E0,-5.481800079E0,1.806304932E0,6.851202011E0
8.160127195E0,-5.253316879E0,1.422105789E0,7.115919113E0
8.165132078E0,-5.072446823E0,1.081027985E0,7.259656906E0
8.170136960E0,-4.910741806E0,8.582344055E-1,7.439029694E0
8.175141843E0,-4.653511047E0,7.252769470E-1,7.624691010E0
8.180146726E0,-4.380409241E0,5.782451630E-1,7.648647308E0
8.185182126E0,-4.175882339E0,5.818386078E-1,7.593547821E0
8.190187009E0,-4.016572952E0,6.438255310E-1,7.515689850E0
8.195191892E0,-3.949495316E0,7.863655090E-1,7.422260284E0
8.200196775E0,-3.903978348E0,9.552574158E-1,7.436634064E0
8.205201658E0,-3.949495316E0,1.164575577E0,7.565998077E0
8.210237058E0,-4.058496475E0,1.250818253E0,7.739681244E0
8.215241941E0,-4.173486710E0,1.337060928E0,7.910669327E0
8.220246824E0,-4.193849564E0,1.555063248E0,7.927438736E0
8.225251706E0,-4.412750244E0,1.636215210E0,7.688175201E0
8.230256589E0,-4.561279297E0,1.705688477E0,7.495326996E0
8.235291990E0,-4.661895752E0,1.803909302E0,7.276426315E0
8.240296872E0,-4.768501282E0,1.896141052E0,6.991346359E0
8.245301755E0,-4.891576767E0,2.085395813E0,6.933851242E0
8.250306638E0,-5.031721115E0,2.196493149E0,7.206953049E0
8.255311521E0,-5.054479599E0,2.294713974E0,7.728900909E0
8.260346921E0,-5.067655563E0,2.464803696E0,8.249650955E0
8.265351804E0,-5.317998886E0,2.594167709E0,8.678169250E0
8.270356687E0,-5.578823090E0,2.634593964E0,8.934202194E0
8.275361570E0,-5.580020905E0,2.870563507E0,9.020444870E0
8.280366453E0,-5.712978363E0,3.257158279E0,8.960554123E0
8.285401853E0,-6.148683548E0,3.467973709E0,8.779983521E0
8.290406736E0,-6.693389893E0,3.586557388E0,8.522453308E0
8.295411619E0,-7.245283127E0,3.768325806E0,8.415847778E0
8.300416501E0,-7.811550140E0,3.827018738E0,8.235277176E0
8.305421384E0,-8.127473831E0,3.891700745E0,8.137056351E0
8.310456785E0,-7.879825592E0,3.957580566E0,8.290376663E0
8.315461667E0,-6.705368042E0,3.901283264E0,8.171792984E0
8.320466550E0,-5.272481918E0,3.686874390E0,7.733692169E0
8.325471433E0,-4.142343521E0,3.336214066E0,7.423458099E0
8.330506833E0,-3.506603241E0,3.214036942E0,7.823528290E0
8.335511716E0,-2.569313049E0,4.266317368E0,8.657806396E0
8.340486081E0,-1.335264206E0,6.687999725E0,1.020688057E1
8.345490964E0,5.456047058E-1,8.707515717E0,1.517122459E1
8.350526365E0,7.141971588E-1,7.942710876E0,2.048622894E1
8.355561765E0,-8.836879730E-1,5.735137939E0,2.133038902E1
8.360536130E0,-1.864099503E0,3.850975037E0,1.887367058E1
8.365541013E0,-3.492229462E0,2.345022202E0,1.560213852E1
8.370576413E0,-6.072023392E0,1.453248978E0,1.171043777E1
8.375611814E0,-7.361471176E0,8.845863342E-1,8.876707077E0
8.380616697E0,-8.570365906E0,1.314601898E-1,7.799571991E0
8.385621579E0,-9.719669342E0,-4.488811493E-1,6.538871765E0
8.390626462E0,-1.083543396E1,-1.057071686E0,5.283262253E0
8.395631345E0,-1.182662582E1,-1.759889603E0,4.148332596E0
8.400636228E0,-1.231024361E1,-2.724729538E0,3.390415192E0
8.405671628E0,-1.217369270E1,-3.721910477E0,2.040178299E0
8.410676511E0,-1.166611862E1,-3.913560867E0,1.769771576E0
8.415681394E0,-1.090580559E1,-3.586557388E0,2.799293518E0
8.420686277E0,-9.528018951E0,-2.922069550E0,3.506603241E0
8.425691160E0,-8.156221390E0,-2.128517151E0,4.253740311E0
8.430696042E0,-7.277624130E0,-1.230754852E0,5.298833847E0
8.435700925E0,-6.564025879E0,-6.201686859E-1,6.520904541E0
8.440736326E0,-6.255289078E0,-2.587280273E-1,7.685779572E0
8.445741208E0,-5.927087784E0,-8.384704590E-3,8.827596664E0
8.450746091E0,-5.808803558E0,2.248897552E-1,9.648998260E0
8.455750974E0,-5.841144562E0,2.871761322E-1,9.877481461E0
8.460755857E0,-5.979791641E0,2.488460541E-1,9.668163300E0
8.465791257E0,-6.315179825E0,2.332744598E-1,8.980916977E0
8.470796140E0,-6.719741821E0,2.716045380E-1,7.988527298E0
8.475801023E0,-7.009313583E0,1.338558197E-1,6.876356125E0
8.480805906E0,-6.908697128E0,-1.796722412E-1,5.623142242E0
8.485810788E0,-6.656257629E0,-2.934646606E-1,4.677467346E0
8.490846189E0,-6.441848755E0,-3.997707367E-1,4.265718460E0
8.495851072E0,-6.504135132E0,-4.740352631E-1,4.217805862E0
8.500855954E0,-6.761665344E0,-4.369029999E-1,4.203432083E0
8.505860837E0,-6.651466370E0,-1.892547607E-1,4.349266052E0
8.510865720E0,-6.455024719E0,1.075038910E-1,4.564872742E0
8.515901120E0,-6.190607071E0,3.578472137E-1,4.713401794E0
8.520906003E0,-5.924692154E0,6.869468689E-1,4.705017090E0
8.525910886E0,-5.835155487E0,9.636421204E-1,4.691841125E0
8.530915769E0,-5.788440704E0,1.172960281E0,4.393585205E0
8.535951169E0,-5.606372833E0,1.413721085E0,3.905176163E0
8.540956052E0,-5.512943268E0,1.491579056E0,3.548526764E0
8.545960935E0,-5.365911484E0,1.489183426E0,3.134382248E0
8.550965818E0,-5.341955185E0,1.377786636E0,2.752578735E0
8.555970701E0,-5.468624115E0,1.271181107E0,2.581291199E0
8.560975583E0,-5.620746613E0,1.075038910E0,2.510620117E0
8.565980466E0,-5.708187103E0,8.869819641E-1,2.504631042E0
8.570985349E0,-5.911516190E0,7.660026550E-1,2.693885803E0
8.575990232E0,-6.179826736E0,6.210670471E-1,3.158338547E0
8.580995115E0,-6.440650940E0,6.438255310E-1,3.754550934E0
8.586030515E0,-6.879949570E0,8.055305481E-1,4.374420166E0
8.591035398E0,-7.319547653E0,1.031917572E0,4.994588852E0
8.596040281E0,-7.577976227E0,1.535898209E0,5.709384918E0
8.601045163E0,-7.873836517E0,2.234823227E0,6.221750259E0
8.606080564E0,-7.977746964E0,2.881343842E0,6.455024719E0
8.611085447E0,-7.953790665E0,3.414072037E0,6.505332947E0
8.616090329E0,-8.035242081E0,3.697654724E0,6.790412903E0
8.621095212E0,-8.014879227E0,3.556612015E0,6.897916794E0
8.626130613E0,-7.707340240E0,3.341005325E0,6.643081665E0
8.631135495E0,-7.008115768E0,3.124200821E0,6.396331787E0
8.636140378E0,-6.209772110E0,2.813068390E0,6.214563370E0
8.641175779E0,-5.517734528E0,2.615428925E0,6.106760025E0
8.646180662E0,-4.975423813E0,2.481573105E0,6.087594986E0
8.651185544E0,-4.344774246E0,2.364187241E0,6.170244217E0
8.656190427E0,-3.807254791E0,2.300703049E0,6.354408264E0
8.661195310E0,-3.036161423E0,2.222845078E0,6.280443192E0
8.666230710E0,-3.058919907E0,2.270757675E0,6.188211441E0
8.671235593E0,-3.954286575E0,2.407308578E0,6.356803894E0
8.676240476E0,-4.599609375E0,2.499540329E0,6.516113281E0
8.681245359E0,-4.889181137E0,2.616626740E0,6.203783035E0
8.686250242E0,-5.183843613E0,2.566617966E0,5.636318207E0
8.691285642E0,-5.438678741E0,2.615428925E0,5.733341217E0
8.696290525E0,-5.906724930E0,2.652561188E0,6.135507584E0
8.701295408E0,-6.391540527E0,2.719638824E0,6.765258789E0
8.706300290E0,-6.876655579E0,2.781925201E0,7.333621979E0
8.711305173E0,-7.235700607E0,2.736408234E0,8.058000565E0
8.716340574E0,-7.625888824E0,2.740001678E0,8.948575974E0
8.721345456E0,-8.083154678E0,2.825046539E0,1.009548378E1
8.726350339E0,-8.290376663E0,2.922069550E0,1.090221214E1
8.731355222E0,-8.078363419E0,2.954410553E0,1.111901665E1
8.736360105E0,-7.720516205E0,2.943630219E0,1.088664055E1
8.741395505E0,-7.118314743E0,2.932849884E0,1.026437569E1
8.746400388E0,-6.478981018E0,2.912487030E0,9.452556610E0
8.751405271E0,-5.928285599E0,2.935245514E0,8.751235962E0
8.756410154E0,-5.596790314E0,2.901706696E0,8.216112137E0
8.761415037E0,-5.353933334E0,2.692089081E0,7.957384109E0
8.766450437E0,-5.162282944E0,2.796298981E0,8.073572159E0
8.771455320E0,-5.204206467E0,2.790309906E0,8.092737198E0
8.776460203E0,-5.074842453E0,2.930454254E0,8.152627945E0
8.781465085E0,-4.926313400E0,3.302675247E0,8.303552628E0
8.786469968E0,-4.693038940E0,3.886909485E0,8.558387756E0
8.791505369E0,-4.739753723E0,4.534627914E0,8.700927734E0
8.796510251E0,-4.848754883E0,5.439577103E0,8.709312439E0
8.801515134E0,-4.672676086E0,6.451131821E0,9.006071091E0
8.806520017E0,-4.998182297E0,7.190782547E0,9.387874603E0
8.811524900E0,-5.747714996E0,7.781005859E0,9.865503311E0
8.816529783E0,-6.243310928E0,8.100822449E0,1.064617920E1
8.821565183E0,-6.670631409E0,7.509401321E0,1.138822556E1
8.826570066E0,-7.077589035E0,5.742324829E0,1.177751541E1
8.831574949E0,-6.847908020E0,4.265119553E0,1.122202873E1
8.836579831E0,-6.317575455E0,3.625785828E0,9.811901093E0
8.841615232E0,-5.969011307E0,3.461984634E0,7.540843964E0
8.846620115E0,-5.046094894E0,3.499116898E0,5.480602264E0
8.851624997E0,-3.801265717E0,4.108205795E0,4.362442017E0
8.856629880E0,-3.212240219E0,4.696033478E0,3.806955338E0
8.861634763E0,-3.027776718E0,5.183244705E0,3.911165237E0
8.866670163E0,-3.219427109E0,5.612062454E0,4.427124023E0
8.871675046E0,-3.608417511E0,6.114845276E0,5.348842621E0
8.876679929E0,-3.810848236E0,6.284635544E0,6.368782043E0
8.881684812E0,-3.919549942E0,6.273855209E0,7.294393539E0
8.886689695E0,-3.744968414E0,6.257085800E0,8.241266251E0
8.891725095E0,-3.827617645E0,6.064537048E0,8.681762695E0
8.896729978E0,-4.282487869E0,5.721961975E0,8.740455627E0
8.901734861E0,-4.515762329E0,5.149705887E0,8.546409607E0
8.906739744E0,-4.763710022E0,4.655307770E0,8.087945938E0
8.911744626E0,-4.872411728E0,4.058197021E0,7.676197052E0
8.916780027E0,-4.990995407E0,3.432039261E0,7.227315903E0
8.921784910E0,-5.048490524E0,2.920871735E0,6.779632568E0
8.926789792E0,-4.896368027E0,2.617824554E0,6.609542847E0
8.931794675E0,-4.688247681E0,2.558233261E0,6.583190918E0
8.936799558E0,-4.448684692E0,2.516309738E0,6.655059814E0
8.941804441E0,-4.395980835E0,2.650165558E0,6.810476303E0
8.946839841E0,-4.400772095E0,2.905300140E0,7.214139938E0
8.951844724E0,-4.262125015E0,3.176904678E0,7.697757721E0
8.956849607E0,-4.274103165E0,3.520677567E0,8.365539551E0
8.961854490E0,-4.497795105E0,4.112997055E0,8.849157333E0
8.966859372E0,-4.693038940E0,4.785869598E0,8.815618515E0
8.971894773E0,-5.076040268E0,5.385675430E0,8.340385437E0
8.976899656E0,-5.594394684E0,6.022613525E0,7.828319550E0
8.981904538E0,-5.984582901E0,6.493055344E0,7.555217743E0
8.986909421E0,-6.419090271E0,6.619724274E0,7.502513885E0
8.991914304E0,-6.846710205E0,6.599660873E0,7.485744476E0
8.996949704E0,-7.103940964E0,6.502637863E0,7.550426483E0
9.001954587E0,-6.647872925E0,6.342130661E0,7.274030685E0
9.006959470E0,-6.324762344E0,6.030998230E0,6.889532089E0
9.011964353E0,-6.345125198E0,5.498270035E0,7.139875412E0
9.016969236E0,-6.140298843E0,5.032619476E0,7.549228668E0
9.022004636E0,-6.068429947E0,4.568166733E0,7.917856216E0
9.027009519E0,-6.051660538E0,4.273504257E0,8.182573318E0
9.032014402E0,-6.014528275E0,4.079757690E0,8.415847778E0
9.037019285E0,-6.089990616E0,3.997108459E0,8.383506775E0
9.042024167E0,-6.145090103E0,3.886909485E0,8.286783218E0
9.047059568E0,-5.768077850E0,3.636566162E0,8.066385269E0
9.052064451E0,-5.538097382E0,3.320642471E0,7.928636551E0
9.057069333E0,-5.107183456E0,2.902904510E0,7.682186127E0
9.062074216E0,-4.618774414E0,2.481573105E0,7.349193573E0
9.067079099E0,-4.209421158E0,2.037483215E0,7.046445847E0
9.072114499E0,-3.758144379E0,1.594591141E0,6.573608398E0
9.077119382E0,-3.382030487E0,1.220872879E0,6.036088943E0
9.082124265E0,-3.082876205E0,8.678169250E-1,5.611164093E0
9.087129148E0,-2.961896896E0,6.174736023E-1,5.328479767E0
9.092134031E0,-3.033765793E0,3.997707367E-1,5.315303802E0
9.097169431E0,-3.045743942E0,2.308788300E-1,5.326084137E0
9.102174314E0,-2.906797409E0,2.308788300E-1,5.431491852E0
9.107179197E0,-2.799293518E0,3.566493988E-1,5.681835175E0
9.112184079E0,-2.669929504E0,5.399150848E-1,6.012132645E0
9.117188962E0,-2.536972046E0,7.588157654E-1,6.365188599E0
9.122224363E0,-2.499839783E0,9.816093445E-1,6.700576782E0
9.127229245E0,-2.417190552E0,1.263994217E0,6.935049057E0
9.132234128E0,-2.283334732E0,1.510744095E0,6.907499313E0
9.137239011E0,-2.101266861E0,1.766777039E0,6.823652267E0
9.142243894E0,-1.994661331E0,2.036285400E0,6.841619492E0
9.147279294E0,-2.030595779E0,2.194097519E0,6.622718811E0
9.152284177E0,-1.953935623E0,2.316274643E0,6.383155823E0
9.157289060E0,-1.891649246E0,2.488759995E0,6.179826736E0
9.162293943E0,-1.992265701E0,2.662143707E0,5.735736847E0
9.167298826E0,-2.114442825E0,2.819057465E0,5.218580246E0
9.172334226E0,-2.193498611E0,2.971179962E0,4.841268539E0
9.177339109E0,-2.354005814E0,3.070598602E0,4.826894760E0
9.182343992E0,-2.471092224E0,3.126596451E0,4.846059799E0
9.187348874E0,-2.732215881E0,3.133783340E0,5.049688339E0
9.192353757E0,-3.151151657E0,3.118511200E0,5.751308441E0
9.197389158E0,-3.097249985E0,3.174509048E0,6.432266235E0
9.202394040E0,-3.064908981E0,3.306268692E0,6.788017273E0
9.207398923E0,-3.128393173E0,3.475160599E0,7.328830719E0
9.212403806E0,-3.110425949E0,3.566194534E0,8.135858536E0
9.217408689E0,-2.991842270E0,3.613807678E0,8.907850266E0
9.222444089E0,-2.900808334E0,3.785095215E0,9.616657257E0
9.227448972E0,-2.571708679E0,3.991119385E0,1.035990143E1
9.232453855E0,-2.377662659E0,3.991119385E0,1.099564171E1
9.237458738E0,-2.011430740E0,4.196844101E0,1.114536858E1
9.242463620E0,-1.651187897E0,4.521451950E0,1.117890739E1
9.247499021E0,-1.403240204E0,4.832584381E0,1.136546707E1
9.252503904E0,-1.093305588E0,5.036212921E0,1.142296219E1
9.257508787E0,-6.492156982E-1,5.201211929E0,1.141577530E1
9.262513669E0,-3.833007812E-1,5.269487381E0,1.147207260E1
9.267518552E0,-3.129291534E-1,5.128145218E0,1.139181900E1
9.272553953E0,-1.260700226E-1,4.834980011E0,1.123280907E1
9.277558835E0,-2.695083618E-3,4.556188583E0,1.087346458E1
9.282563718E0,8.085250854E-3,4.302251816E0,1.034792328E1
9.287568601E0,1.599082947E-1,4.078559875E0,9.736438751E0
9.292573484E0,2.892723083E-1,3.908470154E0,9.139028549E0
9.297608884E0,3.276023865E-1,3.821029663E0,8.565574646E0
9.302613767E0,5.779457092E-1,3.695259094E0,8.035242081E0
9.307618650E0,9.034519196E-1,3.603326797E0,7.623493195E0
9.312623533E0,9.705295563E-1,3.513490677E0,7.410282135E0
9.317628415E0,1.081926346E0,3.547029495E0,7.194974899E0
9.322663816E0,1.135828018E0,3.588953018E0,6.975774765E0
9.327668699E0,9.357929230E-1,3.523073196E0,6.992544174E0
9.332673581E0,4.617576599E-1,3.398500443E0,7.200963974E0
9.337678464E0,-8.534431458E-2,3.305070877E0,7.472568512E0
9.342683347E0,-6.695785522E-1,3.127794266E0,7.793582916E0
9.347718747E0,-1.112470627E0,2.972377777E0,8.213716507E0
9.352723630E0,-1.311307907E0,2.761562347E0,8.607498169E0
9.357728513E0,-1.105283737E0,2.523496628E0,8.879102707E0
9.362733396E0,-9.926891327E-1,2.347417831E0,9.173765182E0
9.367738279E0,-1.051382065E0,2.177328110E0,9.289953232E0
9.372773679E0,-8.396682739E-1,2.079406738E0,9.065961838E0
9.377778562E0,-6.013031006E-1,2.044670105E0,9.050390244E0
9.382783445E0,-4.707412720E-1,2.166547775E0,9.226469040E0
9.387788328E0,-3.892898560E-1,2.337835312E0,8.955762863E0
9.392793210E0,-4.252243042E-1,2.572607040E0,8.621871948E0
9.397828611E0,-5.977096558E-1,2.900508881E0,8.643432617E0
9.402833494E0,-4.875106812E-1,3.287103653E0,8.953367233E0
9.407838376E0,-1.608066559E-1,3.860557556E0,9.490886688E0
9.412843259E0,2.006340027E-1,4.615779877E0,1.028114510E1
9.417848142E0,1.718864441E-1,5.109279633E0,1.129509544E1
9.422883542E0,1.278667450E-1,5.634521484E0,1.243451691E1
9.427888425E0,7.381534576E-1,6.747890472E0,1.344846725E1
9.432893308E0,1.328376770E0,8.362844467E0,1.369761276E1
9.437898191E0,1.950941086E0,1.032007408E1,1.291094780E1
9.442903074E0,2.906198502E0,1.258394432E1,1.178110886E1
9.447938474E0,3.817136765E0,1.422734642E1,1.072044373E1
9.452943357E0,4.045919418E0,1.451721764E1,9.987680435E0
9.457948240E0,3.801565170E0,1.400605011E1,9.512447357E0
9.462953122E0,3.271232605E0,1.304719925E1,8.998884201E0
9.467958005E0,2.047964096E0,1.140589333E1,8.433815002E0
9.472993406E0,2.329750061E-1,9.011760712E0,8.107110977E0
9.477998288E0,-1.949144363E0,6.439153671E0,8.615882874E0
9.483003171E0,-3.326032639E0,4.146535873E0,9.372303009E0
9.488008054E0,-4.059694290E0,2.256383896E0,9.725658417E0
9.493012937E0,-4.539718628E0,9.887962341E-1,9.842744827E0
9.498048337E0,-4.570861816E0,1.877574921E-1,9.922998428E0
9.503053220E0,-4.240564346E0,1.518230438E-1,1.019610023E1
9.508058103E0,-3.422756195E0,1.289148331E0,1.005356026E1
9.513062986E0,-2.577697754E0,2.884937286E0,9.687328339E0
9.518067869E0,-1.644001007E0,4.584936142E0,9.930185318E0
9.523103269E0,-7.821731567E-1,6.198392868E0,1.101001549E1
9.528108152E0,-4.300155640E-1,7.424356461E0,1.211739540E1
9.533113035E0,-5.198516846E-1,7.994216919E0,1.294568443E1
9.538117917E0,-1.157987595E0,7.777412415E0,1.364490891E1
9.543122800E0,-1.690715790E0,7.072498322E0,1.370479965E1
9.548127683E0,-1.835651398E0,6.361295700E0,1.339696121E1
9.553163083E0,-1.992265701E0,5.527017593E0,1.307025719E1
9.558167966E0,-2.746589661E0,4.304647446E0,1.296964073E1
9.563172849E0,-3.959077835E0,3.121805191E0,1.237223053E1
9.568177732E0,-5.226964951E0,2.176130295E0,1.077194977E1
9.573182615E0,-5.208997726E0,2.102165222E0,9.921800613E0
9.578218015E0,-6.218156815E0,2.067428589E0,9.338764191E0
9.583222898E0,-7.020093918E0,2.256383896E0,8.389495850E0
9.588227781E0,-5.448261261E0,3.132585526E0,7.713329315E0
9.593232663E0,-3.965066910E0,3.878524780E0,7.172216415E0
9.598237546E0,-3.194272995E0,4.193250656E0,7.143468857E0
9.603272947E0,-2.502235413E0,4.359746933E0,7.617504120E0
9.608277829E0,-1.847629547E0,4.472341537E0,7.758846283E0
9.613282712E0,-2.973575592E-1,3.656929016E0,7.167425156E0
9.618287595E0,8.983612061E-4,3.378137589E0,7.135084152E0
9.623292478E0,-6.719741821E-1,4.206426620E0,7.803165436E0
9.628297361E0,-7.953491211E-1,4.922420502E0,8.262826920E0
9.633302244E0,-2.566318512E-1,5.078136444E0,8.457771301E0
9.638307126E0,8.555393219E-1,3.578172684E0,8.216112137E0
9.643312009E0,-3.416767120E-1,3.273927689E0,9.093511581E0
9.648347410E0,-1.644001007E0,3.828216553E0,9.614261627E0
9.653352292E0,-2.183017731E-1,3.003520966E0,9.222875595E0
9.658387693E0,2.545356750E-1,1.580217361E0,8.952169418E0
9.663392576E0,-1.696704865E0,2.165349960E0,9.653789520E0
9.668397458E0,-2.237817764E0,2.827442169E0,9.683734894E0
9.673432859E0,-9.052486420E-1,2.102165222E0,8.961751938E0
9.678437742E0,-1.751804352E-1,8.055305481E-1,8.415847778E0
9.683442624E0,-1.425998688E0,1.246026993E0,8.564376831E0
9.688447507E0,-1.814090729E0,2.155767441E0,8.188562393E0
9.693452390E0,-1.814090729E0,2.936443329E0,7.664218903E0
9.698457273E0,-1.860805511E0,3.249971390E0,7.495326996E0
9.703492673E0,-2.260576248E0,3.346994400E0,7.672603607E0
9.708497556E0,-2.149179459E0,3.563798904E0,7.750461578E0
9.713502439E0,-5.090713501E-3,2.494749069E0,7.162633896E0
9.718507322E0,2.329750061E-1,1.791931152E0,6.895521164E0
9.723512204E0,-1.265790939E0,2.492353439E0,7.202161789E0
9.728547605E0,-2.280939102E0,3.264345169E0,7.235700607E0
9.733552488E0,-2.703468323E0,3.957580566E0,7.485744476E0
9.738557370E0,-2.882841110E0,4.593320847E0,8.110704422E0
9.743562253E0,-3.459888458E0,5.027828217E0,8.641036987E0
9.748567136E0,-4.391189575E0,5.164079666E0,8.733268738E0
9.753602537E0,-5.004171371E0,5.273080826E0,8.490112305E0
9.758607419E0,-5.157491684E0,5.669258118E0,7.995714188E0
9.763612302E0,-5.101194382E0,6.200788498E0,7.557613373E0
9.768617185E0,-4.951467514E0,6.494253159E0,7.480953217E0
9.773622068E0,-5.041303635E0,6.265470505E0,7.670207977E0
9.778657468E0,-5.320394516E0,5.612062454E0,7.848382950E0
9.783662351E0,-5.447063446E0,4.964344025E0,7.815143585E0
9.788667234E0,-5.192228317E0,4.523847580E0,7.642658234E0
9.793672117E0,-5.055677414E0,4.321416855E0,7.607921600E0
9.798676999E0,-4.874807358E0,4.545408249E0,7.549228668E0
9.803712400E0,-4.696632385E0,4.734363556E0,7.409084320E0
9.808717283E0,-4.787666321E0,4.849353790E0,7.370754242E0
9.813722165E0,-4.395980835E0,4.422033310E0,6.732917786E0
9.818727048E0,-3.039754868E0,2.958003998E0,5.758495331E0
9.823731931E0,-3.893198013E0,2.744792938E0,5.862405777E0
9.828767331E0,-5.529712677E0,3.791084290E0,5.726154327E0
9.833772214E0,-5.488986969E0,4.346570969E0,5.347644806E0
9.838777097E0,-5.656681061E0,4.666088104E0,5.345249176E0
9.843781980E0,-6.033693314E0,4.758319855E0,5.524921417E0
9.848786863E0,-6.218156815E0,4.676868439E0,5.715373993E0
9.853822263E0,-6.383155823E0,4.574155807E0,5.825273514E0
9.858827146E0,-6.243310928E0,4.763111115E0,5.893548965E0
9.863832029E0,-5.885463715E0,4.977519989E0,6.143892288E0
9.868836912E0,-5.511745453E0,5.092510223E0,6.498146057E0
9.873841794E0,-5.593196869E0,5.041004181E0,6.731719971E0
9.878877195E0,-5.220975876E0,4.973926544E0,6.832036972E0
9.883882078E0,-4.350763321E0,5.094905853E0,7.095556259E0
9.888886960E0,-3.755748749E0,5.469522476E0,7.375545502E0
9.893891843E0,-3.455097198E0,5.845336914E0,7.674999237E0
9.898896726E0,-3.420360565E0,6.107658386E0,7.938219070E0
9.903932126E0,-3.488636017E0,6.319372177E0,8.109506607E0
9.908937009E0,-3.753353119E0,6.422384262E0,8.097528458E0
9.913941892E0,-4.464256287E0,6.291822433E0,8.043626785E0
9.918946775E0,-5.291646957E0,6.015426636E0,7.952592850E0
9.923951658E0,-5.985780716E0,5.517435074E0,7.811550140E0
9.928987058E0,-6.570014954E0,5.086521149E0,7.869943619E0
9.933991941E0,-6.969785690E0,4.863727570E0,7.652240753E0
9.938996824E0,-6.991346359E0,4.622966766E0,7.664218903E0
9.944001706E0,-6.925466537E0,4.438802719E0,7.585163116E0
9.949006589E0,-6.500541687E0,4.356153488E0,7.296789169E0
9.954041990E0,-5.931879044E0,4.521451950E0,6.873960495E0
9.959046872E0,-5.320394516E0,4.850551605E0,6.337638855E0
9.964051755E0,-4.587631226E0,5.171266556E0,5.966615677E0
9.969056638E0,-4.136354446E0,5.530611038E0,5.740528107E0
9.974061521E0,-3.756946564E0,5.721961975E0,5.500965118E0
9.979096921E0,-3.292493820E0,5.929183960E0,5.447063446E0
9.984101804E0,-2.836425781E0,6.199590683E0,5.524921417E0
9.989106687E0,-2.722633362E0,6.461912155E0,5.674648285E0
9.994111570E0,-2.823249817E0,6.637691498E0,5.888757706E0
9.999116453E0,-3.044546127E0,6.588880539E0,6.008539200E0
1.000415185E1,-3.377239227E0,6.276250839E0,6.098375320E0
1.000915674E1,-3.886011124E0,5.838150024E0,6.099573135E0
1.001416162E1,-4.258531570E0,5.503061295E0,6.129518509E0
1.001916650E1,-4.606796265E0,5.444368362E0,6.073221207E0
1.002417138E1,-4.806831360E0,5.482698441E0,5.931879044E0
1.002920679E1,-4.702621460E0,5.627334595E0,5.832460403E0
1.003421167E1,-4.752929688E0,5.883666992E0,5.751308441E0
1.003921655E1,-4.646324158E0,6.058547974E0,5.798023224E0
1.004422143E1,-4.519355774E0,5.990272522E0,5.854021072E0
1.004922632E1,-4.500190735E0,5.787841797E0,5.805210114E0
1.005426172E1,-4.278894424E0,5.762687683E0,5.742923737E0
1.005926660E1,-3.864749908E0,5.955535889E0,5.764484406E0
1.006427148E1,-3.449108124E0,6.302602768E0,5.802814484E0
1.006927636E1,-3.102041245E0,6.696384430E0,5.883966446E0
1.007428125E1,-3.030172348E0,7.074893951E0,6.016923904E0
1.007931665E1,-2.931951523E0,7.284212112E0,6.097177505E0
1.008432153E1,-2.754974365E0,7.420763016E0,6.015726089E0
1.008932641E1,-2.697479248E0,7.569292068E0,6.045671463E0
1.009433130E1,-2.544158936E0,7.699554443E0,6.015726089E0
1.009933618E1,-2.504631042E0,7.626487732E0,5.833658218E0
1.010437158E1,-2.418388367E0,7.387224197E0,5.603977203E0
1.010937646E1,-2.404014587E0,7.180002213E0,5.484195709E0
1.011438134E1,-2.356401443E0,7.061717987E0,5.277273178E0
1.011938623E1,-2.258180618E0,7.017398834E0,5.224569321E0
1.012439111E1,-2.286928177E0,6.976673126E0,5.224569321E0
1.012939599E1,-2.516609192E0,7.110828400E0,5.346446991E0
1.013443139E1,-2.685501099E0,7.358476639E0,5.491382599E0
1.013943628E1,-2.611236572E0,7.596841812E0,5.684230804E0
1.014444116E1,-2.338434219E0,7.876831055E0,5.768077850E0
1.014944604E1,-2.027002335E0,8.138853073E0,5.655483246E0
1.015445092E1,-1.891649246E0,8.275403976E0,5.381183624E0
1.015948633E1,-2.036584854E0,8.265821457E0,5.047292709E0
1.016449121E1,-2.270158768E0,8.287382126E0,4.889181137E0
1.016949609E1,-2.313280106E0,8.664394379E0,4.768501282E0
1.017450097E1,-2.095277786E0,9.344453812E0,4.627159119E0
1.017950586E1,-1.520626068E0,1.051412010E1,4.602005005E0
1.018454126E1,-5.917205811E-1,1.190987396E1,4.572059631E0
1.018954614E1,5.216484070E-1,1.350446510E1,4.546905518E0
1.019455102E1,1.655080795E0,1.486548233E1,4.173486710E0
1.019955591E1,2.627407074E0,1.622410393E1,3.574878693E0
1.020456079E1,3.149354935E0,1.702154922E1,2.678314209E0
1.020959619E1,2.975671768E0,1.726680183E1,1.892847061E0
1.021460107E1,2.673822403E0,1.636544609E1,1.272977829E0
1.021960595E1,1.979688644E0,1.443816185E1,9.651393890E-1
1.022461084E1,1.201408386E0,1.224975395E1,9.507656097E-1
1.022961572E1,4.881095886E-1,1.019430351E1,1.010656357E0
1.023465112E1,4.258232117E-1,9.047695160E0,1.054975510E0
1.023965600E1,1.287651062E-2,7.832511902E0,1.427196503E0
1.024466089E1,-4.695434570E-1,6.734714508E0,1.658374786E0
1.024966577E1,-7.462387085E-1,5.763885498E0,1.822175980E0
1.025467065E1,-1.361316681E0,4.987102509E0,2.293815613E0
1.025970605E1,-2.312082291E0,4.742748260E0,3.030172348E0
1.026471094E1,-2.558532715E0,4.960750580E0,3.905176163E0
1.026971582E1,-2.460311890E0,5.675247192E0,4.793655396E0
1.027472070E1,-2.406410217E0,6.870067596E0,5.683032990E0
1.027972558E1,-2.218652725E0,8.258634567E0,6.552047729E0
1.028476098E1,-2.062936783E0,9.404344559E0,7.295591354E0
1.028976587E1,-1.865596771E0,1.024461174E1,7.764835358E0
1.029477075E1,-1.545780182E0,1.101570511E1,7.628284454E0
1.029977563E1,-1.118459702E0,1.159395027E1,6.941038132E0
1.030478052E1,-9.088420868E-1,1.176972961E1,5.953439713E0
1.030981592E1,-7.306671143E-1,1.161551094E1,4.814916611E0
1.031482080E1,-6.743698120E-1,1.149692726E1,3.723407745E0
1.031982568E1,-5.701599121E-1,1.110434341E1,2.648368835E0
1.032483056E1,-7.606124878E-1,1.026257896E1,1.614055634E0
1.032983545E1,-1.004667282E0,9.644805908E0,1.038206100E0
1.033487085E1,-1.278966904E0,9.330080032E0,5.246429443E-1
1.033987573E1,-1.898836136E0,9.075244904E0,4.515762329E-1
1.034488061E1,-2.720237732E0,8.840473175E0,5.318298340E-1
1.034988550E1,-3.303274155E0,8.712306976E0,8.333797455E-1
1.035489038E1,-3.843189240E0,8.622470856E0,1.436779022E0
1.035992578E1,-4.174684525E0,8.585638046E0,2.068925858E0
1.036493066E1,-3.939912796E0,8.925518036E0,2.806180954E0
1.036993554E1,-3.284109116E0,8.977024078E0,3.664714813E0
1.037494043E1,-2.517807007E0,9.084827423E0,4.221399307E0
1.037994531E1,-2.050958633E0,9.212694168E0,4.693038940E0
1.038498071E1,-1.524219513E0,9.383981705E0,4.878400803E0
1.038998559E1,-1.228658676E0,9.222276688E0,4.909543991E0
1.039499048E1,-1.111272812E0,8.991397858E0,4.829290390E0
1.039999536E1,-1.129240036E0,8.793758392E0,4.554092407E0
1.040500024E1,-1.154394150E0,8.512571335E0,4.160310745E0
1.041003564E1,-1.064558029E0,8.328107834E0,3.730594635E0
1.041504052E1,-8.264923096E-1,8.275403976E0,3.281713486E0
1.042004541E1,-6.971282959E-1,8.231084824E0,2.921171188E0
1.042505029E1,-6.432266235E-1,8.262228012E0,2.745391846E0
1.043005517E1,-4.611587524E-1,8.386800766E0,2.542961121E0
1.043509057E1,-3.033466339E-1,8.585638046E0,2.423179626E0
1.044009546E1,-3.105335236E-1,8.747043610E0,2.471092224E0
1.044510034E1,-4.348068237E-1,8.835681915E0,2.478279114E0
1.045010522E1,-5.485992432E-1,8.869220734E0,2.541763306E0
1.045511011E1,-6.480178833E-1,8.923122406E0,2.727424622E0
1.046014550E1,-7.737884521E-1,8.817714691E0,2.902006149E0
1.046515039E1,-9.327983856E-1,8.773395538E0,2.963094711E0
1.047015527E1,-1.299329758E0,8.650020599E0,3.024183273E0
1.047516015E1,-1.534999847E0,8.532934189E0,2.923566818E0
1.048016504E1,-1.718265533E0,8.596418381E0,2.893621445E0
1.048520044E1,-2.021013260E0,8.664394379E0,2.816961288E0
1.049020532E1,-2.283334732E0,8.866825104E0,2.582489014E0
1.049521020E1,-2.443542480E0,9.046497345E0,2.342926025E0
1.050021508E1,-2.548950195E0,9.165979385E0,2.136003494E0
1.050521997E1,-2.516609192E0,9.273782730E0,2.006639481E0
1.051025537E1,-2.298906326E0,9.313310623E0,1.880868912E0
1.051526025E1,-1.921594620E0,9.200716019E0,1.794626236E0
1.052026513E1,-1.477504730E0,9.115970612E0,1.661968231E0
