"Time (s)","Linear Acceleration x (m/s^2)","Linear Acceleration y (m/s^2)","Linear Acceleration z (m/s^2)"
3.527530200E-2,-2.504658699E-2,4.571723938E-2,-1.441020966E-1
4.028018500E-2,-5.767768621E-2,3.449010849E-2,-1.847591400E-1
4.528506800E-2,-5.452919006E-2,2.120590210E-2,-8.712148666E-2
5.032046800E-2,-6.316977739E-2,1.651716232E-2,7.747268677E-2
5.532535100E-2,-5.058306456E-2,-5.255699158E-3,2.823810577E-1
6.033023400E-2,-3.045022488E-2,-2.277565002E-2,4.863367081E-1
6.533511700E-2,-3.420710564E-3,-5.762147903E-2,6.540822983E-1
7.033999900E-2,4.163897038E-2,-8.480739594E-2,7.214145660E-1
7.534488200E-2,1.564133763E-1,-8.000469208E-2,6.311750412E-1
8.038028300E-2,2.441025376E-1,-1.265807152E-1,4.639673233E-1
8.538516500E-2,2.492859960E-1,-1.626987457E-1,3.144063950E-1
9.039004800E-2,1.712502837E-1,-1.529412270E-1,1.076087952E-1
9.539493100E-2,1.199735403E-1,-1.566572189E-1,-6.203460693E-2
1.003998140E-1,4.094588757E-2,-1.689343452E-1,-2.361450195E-1
1.054352140E-1,-7.216024399E-2,-1.431884766E-1,-3.464546204E-1
1.104400970E-1,-1.467370987E-1,-6.970739365E-2,-3.256454468E-1
1.154449800E-1,-2.048447728E-1,-8.305788040E-2,-2.619743347E-1
1.204498630E-1,-1.936337948E-1,-3.797578812E-2,-2.366943359E-1
1.254547460E-1,-1.450609565E-1,1.544475555E-3,-2.659130096E-1
1.304901460E-1,-1.337330937E-1,-4.580640793E-2,-2.242269516E-1
1.354950290E-1,-1.219392419E-1,-6.883049011E-2,-1.362762451E-1
1.404999120E-1,-3.585577011E-2,-7.790708542E-2,1.000404358E-3
1.455047940E-1,8.534413576E-2,-7.835865021E-2,1.001834869E-1
1.505096770E-1,2.124102712E-1,-1.177558899E-1,4.603099823E-2
1.555450780E-1,2.559226155E-1,-1.220326424E-1,-2.736091614E-3
1.605499600E-1,2.254664302E-1,-1.836438179E-1,3.089618683E-2
1.655548430E-1,1.370604634E-1,-2.075281143E-1,1.350173950E-1
1.705597260E-1,6.688416004E-3,-2.197208405E-1,2.095203400E-1
1.755646090E-1,-1.600152254E-1,-2.416629791E-1,2.244529724E-1
1.806000090E-1,-2.684507370E-1,-2.316169739E-1,2.328805923E-1
1.856048920E-1,-2.804472446E-1,-1.928367615E-1,1.978368759E-1
1.906097750E-1,-1.943305135E-1,-1.888380051E-1,8.808135986E-2
1.956146580E-1,-1.247758865E-1,-2.126431465E-1,-6.893062592E-2
2.006195400E-1,-8.223056793E-2,-1.664276123E-1,-2.446622849E-1
2.056549410E-1,-9.410309792E-2,-1.691217422E-1,-3.891630173E-1
2.106598240E-1,-1.394566298E-1,-8.397912979E-2,-4.408168793E-1
2.156647060E-1,-1.337834001E-1,-4.602193832E-2,-4.138679504E-1
2.206695890E-1,-1.498876214E-1,-2.701854706E-2,-3.313570023E-1
2.256744720E-1,-1.886011362E-1,-6.166553497E-2,-1.676435471E-1
2.307098720E-1,-2.397573590E-1,-8.822298050E-2,7.925319672E-2
2.357147550E-1,-2.136958241E-1,-9.860992432E-2,1.750345230E-1
2.407196380E-1,-1.716869473E-1,-1.332631111E-1,2.615413666E-1
2.457245210E-1,-6.101799011E-2,-1.286101341E-1,3.777885437E-1
2.507294040E-1,4.943060875E-2,-1.536355019E-1,4.309577942E-1
2.557648040E-1,8.656364679E-2,-1.656613350E-1,5.478944778E-1
2.607696870E-1,7.617259026E-2,-1.323924065E-1,6.771945953E-1
2.657745700E-1,4.253101349E-2,-1.909561157E-1,8.727321625E-1
2.707794530E-1,-3.974390030E-2,-1.861467361E-1,1.077231407E0
2.757843350E-1,-1.321098804E-1,-1.546750069E-1,1.201638222E0
2.808197360E-1,-2.178921700E-1,-1.408820152E-1,1.242049217E0
2.858246190E-1,-3.141571879E-1,-9.846162796E-2,1.122441292E0
2.908295010E-1,-4.279625416E-1,-5.272388458E-2,1.021993637E0
2.958343840E-1,-5.328299403E-1,-4.607915878E-2,9.038429260E-1
3.008392670E-1,-5.723080039E-1,-1.426076889E-2,8.151063919E-1
3.058746670E-1,-5.292752981E-1,3.756809235E-2,7.081747055E-1
3.108795500E-1,-4.818783402E-1,2.374553680E-2,6.193437576E-1
3.158844330E-1,-4.541826844E-1,-7.345247269E-2,6.024074554E-1
3.208893160E-1,-4.932206273E-1,-1.478867531E-1,6.101446152E-1
3.259247160E-1,-5.704392195E-1,-1.881933212E-1,6.362190247E-1
3.309295990E-1,-4.576640725E-1,-1.617102623E-1,6.436815262E-1
3.359344820E-1,-1.000204682E-1,-2.002019882E-1,5.881004333E-1
3.409393650E-1,2.807539701E-1,-3.106846809E-1,4.386367798E-1
3.459442470E-1,5.583719015E-1,-3.304467201E-1,1.907434464E-1
3.509491300E-1,6.916301847E-1,-3.751106262E-1,5.207729340E-2
3.559540130E-1,7.807866335E-1,-3.615369797E-1,1.552581787E-1
3.609588960E-1,9.557687044E-1,-4.616432190E-1,3.954439163E-1
3.659637790E-1,1.155616760E0,-6.871347427E-1,7.910966873E-1
3.709686620E-1,1.122871041E0,-9.200134277E-1,1.359395027E0
3.760040620E-1,8.601999283E-1,-9.914364815E-1,1.969055176E0
3.810089450E-1,4.039620757E-1,-1.129108906E0,2.456430435E0
3.860138280E-1,-1.502214968E-1,-1.257422447E0,2.849970818E0
3.910187100E-1,-6.904335022E-1,-1.427617550E0,3.103007317E0
3.960541110E-1,-5.746864080E-1,-1.678223133E0,3.077226639E0
4.010589940E-1,5.067712069E-2,-1.700772762E0,2.628996849E0
4.060943940E-1,3.501477242E-1,-1.627758503E0,2.096673965E0
4.110992770E-1,3.997086883E-1,-1.515970707E0,1.436630249E0
4.161041600E-1,5.405679345E-1,-1.384264946E0,7.704238892E-1
4.211090420E-1,7.224600911E-1,-1.232173443E0,8.309650421E-2
4.261139250E-1,9.745997190E-1,-1.039012909E0,-5.053348541E-1
4.311188080E-1,1.345753074E0,-8.491792679E-1,-1.098692894E0
4.361236910E-1,1.032922029E0,-3.775157928E-1,-1.609395981E0
4.411285740E-1,8.106453419E-1,-1.264858246E-1,-1.892966747E0
4.461334560E-1,8.576971889E-1,6.089735031E-2,-2.105426788E0
4.511688570E-1,1.028974414E0,1.307487488E-1,-2.030965805E0
4.562042570E-1,1.144254208E0,1.211090088E-1,-1.702497482E0
4.612091400E-1,1.129857659E0,-1.033287048E-1,-1.267189503E0
4.662140230E-1,1.144937396E0,-2.689595222E-1,-7.380862236E-1
4.712189060E-1,1.127983570E0,-4.021596909E-1,-2.217254639E-1
4.762237890E-1,1.194807768E0,-5.292949677E-1,2.360215187E-1
4.812286710E-1,1.310577273E0,-6.421055794E-1,6.477437019E-1
4.862335540E-1,1.475638509E0,-7.025833130E-1,1.023532391E0
4.912384370E-1,1.537791371E0,-8.587431908E-1,1.243079662E0
4.962433200E-1,1.381413341E0,-7.121853828E-1,1.194873333E0
5.012787200E-1,1.564010262E0,-4.067926407E-1,8.636412621E-1
5.062836030E-1,1.566294670E0,-5.499129295E-1,-9.715795517E-2
5.113190030E-1,8.211294413E-1,-6.725587845E-1,-9.631609917E-1
5.163238860E-1,1.548914075E0,-2.206754684E-1,-7.362990379E-1
5.213287690E-1,2.057269096E0,1.188039780E-2,-1.582065105E0
5.263336520E-1,2.497765303E0,3.368978500E-1,-2.511852264E0
5.313385350E-1,2.417434931E0,7.863116264E-1,-2.924221516E0
5.363739350E-1,1.827665329E0,1.228237629E0,-3.243231773E0
5.413788180E-1,1.936094999E0,1.452033043E0,-2.922093391E0
5.463837010E-1,2.523684740E0,1.574193001E0,-1.839064598E0
5.513885830E-1,2.822978497E0,1.707033634E0,-4.593853951E-1
5.563934660E-1,2.739441633E0,1.603245258E0,6.158294678E-1
5.614288670E-1,2.785704851E0,1.307057381E0,1.625784397E0
5.664337490E-1,2.820105314E0,9.283890724E-1,2.476677418E0
5.714386320E-1,2.195371628E0,3.859877586E-1,2.477245808E0
5.764435150E-1,1.211897373E0,-7.098484039E-2,8.494973183E-1
5.814483980E-1,1.004670620E0,-4.849019051E-1,-1.159123421E0
5.864837980E-1,1.069395304E0,-5.497565269E-1,-2.193824291E0
5.914886810E-1,1.035175323E0,-2.923154831E-1,-2.455457211E0
5.964935640E-1,9.698348045E-1,7.131385803E-2,-2.401035786E0
6.014984470E-1,1.196826458E0,2.919106483E-1,-2.104043961E0
6.065033300E-1,1.619524002E0,2.662220001E-1,-1.520812035E0
6.115387300E-1,1.873867989E0,-1.494503021E-2,-4.631938934E-1
6.165436130E-1,2.210493565E0,-3.645992279E-1,7.724184990E-1
6.215484960E-1,2.578048229E0,-6.703300476E-1,2.207809448E0
6.265533780E-1,2.724895000E0,-9.760437012E-1,3.325436831E0
6.315582610E-1,2.177077293E0,-1.392914772E0,3.611653566E0
6.365936620E-1,3.185620308E-1,-1.852273941E0,2.788960457E0
6.415985440E-1,-1.831148624E0,-2.065631866E0,1.064952374E0
6.466034270E-1,-3.221949100E0,-2.060063362E0,-4.734964371E-1
6.516083100E-1,-3.861942768E0,-2.196788788E0,-1.204218149E0
6.566131930E-1,-3.988677502E0,-1.922532082E0,-1.591565132E0
6.616485930E-1,-3.616801262E0,-1.144055367E0,-2.115540504E0
6.666534760E-1,-2.875364304E0,1.154804230E-1,-3.345909834E0
6.716583590E-1,-1.448092937E0,1.310801506E0,-4.491414070E0
6.766632420E-1,-8.088111877E-2,1.914438248E0,-4.957029343E0
6.816681240E-1,6.840524673E-1,1.973988533E0,-4.794203758E0
6.867035250E-1,1.110964298E0,1.804650307E0,-4.280397415E0
6.917084080E-1,1.217844009E0,1.558922768E0,-4.011450291E0
6.967132900E-1,1.215406895E0,1.347146988E0,-4.399402142E0
7.017181730E-1,1.126887321E0,1.091515541E0,-4.563964367E0
7.067230560E-1,-4.093346596E-1,3.796958923E-1,-3.729707479E0
7.117584560E-1,-1.739941120E0,-1.744155884E-1,-2.137667656E0
7.167633390E-1,-1.645777225E0,-2.279129028E-1,-5.085396767E-1
7.217682220E-1,-1.490960121E0,-1.071777344E-1,1.359598398E0
7.267731050E-1,-4.853692055E-1,-2.085552216E-1,2.708890915E0
7.317779880E-1,2.474036217E0,-1.329555511E-1,2.637230396E0
7.368133880E-1,3.529006004E0,-5.414390564E-1,-3.929853439E-3
7.418182710E-1,2.485276699E0,-1.345395088E0,-2.271046162E0
7.468231540E-1,8.125796318E-1,-1.843107224E0,-3.511270046E0
7.518280370E-1,-9.472751617E-2,-1.961406708E0,-4.135354996E0
7.568634370E-1,8.303260803E-2,-1.653598785E0,-4.060281754E0
7.618683200E-1,2.631325722E-1,-1.222461700E0,-3.497365475E0
7.668426850E-1,4.719314575E-1,-7.894754410E-1,-3.013770103E0
7.718475680E-1,9.234809875E-2,-9.514865875E-1,-2.060428619E0
7.768829680E-1,-8.916993141E-1,-1.367300987E0,7.822442055E-2
7.819183690E-1,-1.222082615E0,-1.302227974E0,2.061957598E0
7.868927340E-1,-1.019243717E0,-8.621568680E-1,2.508190632E0
7.919281340E-1,-5.292959213E-1,-3.183832169E-1,2.609574795E0
7.969330170E-1,-9.200496674E-1,3.456678391E-1,1.415204287E0
8.019379000E-1,-1.931804657E0,7.803831100E-1,-6.273422241E-1
8.069427830E-1,-1.833014011E0,9.821529388E-1,-2.420677662E0
8.119781830E-1,-1.789418221E0,1.347237587E0,-4.032676697E0
8.169525480E-1,-1.820113659E0,1.735292435E0,-4.925721169E0
8.219574310E-1,-1.819643974E0,2.026569366E0,-5.133605957E0
8.269623140E-1,-2.200346470E0,2.218998909E0,-5.279181480E0
8.319977140E-1,-1.754802704E0,2.358310699E0,-4.740684986E0
8.370025970E-1,-7.085099220E-1,2.430646896E0,-3.580551624E0
8.420074800E-1,-3.277757168E-1,2.167647362E0,-2.633373976E0
8.470428800E-1,-3.956911564E-1,1.906229973E0,-1.408326149E0
8.520477630E-1,-6.486511230E-2,1.872814178E0,-4.828453064E-3
8.570526460E-1,2.789742947E-1,1.745956421E0,1.188177586E0
8.620880460E-1,1.093925953E0,1.283356667E0,2.660728693E0
8.670929290E-1,2.381624699E0,6.861524582E-1,4.120349884E0
8.720978120E-1,3.166535139E0,1.201782227E-1,4.834124565E0
8.771026950E-1,3.974772215E0,-3.405427933E-1,4.801843643E0
8.821075780E-1,4.696859837E0,-9.295873642E-1,3.841600418E0
8.871429780E-1,5.065946579E0,-1.419771194E0,2.293651342E0
8.921478610E-1,4.981822014E0,-1.787613869E0,1.327971935E0
8.971527440E-1,4.081691742E0,-1.832159042E0,1.641897678E0
9.021576260E-1,2.505864382E0,-1.374590874E0,2.632102966E0
9.071625090E-1,1.018972158E0,-8.419494629E-1,3.034131050E0
9.121673920E-1,-5.065970421E-1,-5.569610596E-1,2.496821404E0
9.171722750E-1,-2.093262672E0,-4.758224487E-1,1.554937840E0
9.222076750E-1,-3.053416729E0,-3.672389984E-1,6.849839687E-1
9.272125580E-1,-2.919610500E0,6.484889984E-2,-1.353282928E-1
9.322174410E-1,-2.183258772E0,7.864055634E-1,-7.206490040E-1
9.372223240E-1,-1.233006716E0,1.345694542E0,-1.251941442E0
9.422577240E-1,-2.822048664E-1,1.464782715E0,-1.924349785E0
9.472626070E-1,1.266515732E0,1.224172592E0,-2.137911081E0
9.522674900E-1,3.100643396E0,6.409101486E-1,-1.869797468E0
9.572723720E-1,4.516005039E0,-5.893325806E-2,-1.078708410E0
9.622772550E-1,4.671592712E0,-3.805856705E-1,6.219792366E-2
9.673126560E-1,3.688050747E0,-3.153104782E-1,1.453712940E0
9.723175390E-1,2.509180307E0,-4.029769897E-1,2.562607288E0
9.773224210E-1,1.703846097E0,-7.910413742E-1,3.258386612E0
9.823273040E-1,1.280293941E0,-1.225144386E0,3.570580482E0
9.873321870E-1,8.386675119E-1,-1.301053047E0,3.778093338E0
9.923675870E-1,1.276878119E-1,-1.303177834E0,4.133316040E0
9.973724700E-1,-3.167083263E-1,-1.305794716E0,4.108051777E0
1.002377353E0,-2.935363054E-1,-1.203525543E0,4.040881634E0
1.007382236E0,2.144514322E-1,-8.244562149E-1,4.015674591E0
1.012387119E0,-6.638479233E-2,-7.758741379E-1,2.986405373E0
1.017422519E0,-4.186342955E-1,-9.958658218E-1,1.040831804E0
1.022427402E0,-2.229335308E-1,-1.090895653E0,-7.074687481E-1
1.027432285E0,9.355914593E-2,-9.865541458E-1,-1.660547733E0
1.032437167E0,4.570651054E-1,-6.575307846E-1,-2.231518269E0
1.037442050E0,8.991990089E-1,-2.643709183E-1,-2.434924126E0
1.042477451E0,1.083438516E0,1.148271561E-1,-2.385080814E0
1.047482333E0,1.183206677E0,3.353824615E-1,-2.113418579E0
1.052487216E0,1.908644557E0,3.206653595E-1,-1.839199781E0
1.057492099E0,2.796656609E0,3.005027771E-3,-1.729492664E0
1.062496982E0,3.288439035E0,-5.791568756E-1,-1.418992043E0
1.067532382E0,3.049532175E0,-1.199997902E0,-8.704071045E-1
1.072537265E0,2.321408033E0,-1.610922813E0,-8.633208275E-1
1.077542148E0,1.462650537E0,-1.775316238E0,-1.471039534E0
1.082547031E0,1.612237334E0,-2.008830070E0,-1.775975704E0
1.087551914E0,1.846723557E0,-2.254992485E0,-1.570136309E0
1.092587314E0,9.540156126E-1,-1.961176872E0,-1.170835018E0
1.097592197E0,7.255023718E-1,-1.503368378E0,-2.651109695E-1
1.102597080E0,8.671869040E-1,-1.475204468E0,3.754884005E-1
1.107601962E0,1.483786225E0,-1.674521446E0,3.928012848E-1
1.112606845E0,2.308351994E0,-1.494254112E0,-5.635511875E-2
1.117642246E0,9.745463133E-1,-1.367623329E0,-2.203895092E0
1.122647128E0,-4.110082626E0,-1.120658875E0,-5.693799496E0
1.127652011E0,-6.204342842E0,-6.972980499E-1,-7.526168823E0
1.132656894E0,-2.353970528E0,-2.503747940E-1,-6.152979851E0
1.137661777E0,2.275937557E0,-3.552436829E-3,-4.042560577E0
1.142697177E0,4.030534267E0,-4.446907043E-1,-3.247415781E0
1.147702060E0,3.354913712E0,-1.114927292E0,-3.536259651E0
1.152706943E0,2.483660221E0,-1.321599007E0,-2.490586758E0
1.157711826E0,1.854541302E0,-1.212440491E0,5.080593824E-1
1.162716708E0,1.451274991E0,-1.438272476E0,2.600874186E0
1.167752109E0,1.437371731E0,-2.083679199E0,2.419170618E0
1.172756992E0,7.208328247E-1,-2.613358498E0,1.126333237E0
1.177761874E0,-2.297956944E-1,-2.699616432E0,-3.171349764E-1
1.182766757E0,-8.389929533E-1,-2.022457123E0,-2.014682293E0
1.187771640E0,-1.460571051E0,-1.008400917E0,-3.870559454E0
1.192807040E0,-1.517839670E0,-2.265357971E-1,-4.676166058E0
1.197811923E0,-7.821978331E-1,7.791309357E-1,-3.916197777E0
1.202816806E0,-1.067230105E0,1.672492981E0,-3.507060766E0
1.207821689E0,-1.896941662E0,1.638208389E0,-3.488245010E0
1.212826572E0,-1.044386387E0,1.211615562E0,-2.739516973E0
1.217861972E0,-7.262024879E-1,4.542226791E-1,-2.401968002E0
1.222866855E0,-1.042399645E0,2.232551575E-3,-1.714691401E0
1.227871738E0,-1.190726757E0,7.577056885E-1,-4.187797904E-1
1.232876621E0,-1.228258610E-1,3.564405441E-1,1.410696149E0
1.237881503E0,3.356680870E-1,-1.592922211E-1,2.248145819E0
1.242916904E0,-9.741017818E-1,-1.097890854E0,2.786820650E0
1.247921787E0,-1.799220562E0,-2.317535400E0,1.671424985E0
1.252926669E0,1.330227613E0,-3.884355545E0,1.213593364E0
1.257931552E0,1.341299057E0,-4.961470604E0,-1.874953508E-1
1.262936435E0,-1.262631893E0,-4.810359001E0,-2.057856560E0
1.267971835E0,-1.240687490E0,-3.359642029E0,-3.262537122E-1
1.272976718E0,-2.124416828E0,-2.264892578E0,-7.378891706E-1
1.277981601E0,-7.695064545E0,-1.408500671E-1,-4.676621914E0
1.282986484E0,-1.626854539E0,-2.018585205E-1,-4.087890148E0
1.287991367E0,3.119591713E0,3.933620453E-2,-1.879840136E0
1.293026767E0,3.402579784E0,1.864334106E0,-2.605947018E0
1.298031650E0,3.076245070E0,4.298653603E0,-3.294831514E0
1.303036533E0,2.800294399E0,5.497971535E0,-3.344282627E0
1.308041415E0,2.790123224E0,5.852991104E0,-2.821271420E0
1.313046298E0,2.173723221E0,5.865394592E0,-2.110410452E0
1.318051181E0,2.701802492E0,6.111289024E0,-8.286203742E-1
1.323086581E0,3.204983950E0,6.324152946E0,1.661396623E-1
1.328091464E0,2.685827255E0,4.759433746E0,1.024691343E0
1.333096347E0,2.640399933E0,2.817433357E0,2.024661064E0
1.338101230E0,2.375655651E0,1.983681679E0,2.154980898E0
1.343106113E0,1.978915930E0,1.661067963E0,1.568023205E0
1.348141513E0,1.590057015E0,1.197776794E0,9.066434503E-1
1.353146396E0,8.412504196E-1,4.010581970E-1,1.585574746E-1
1.358151279E0,9.632968903E-1,4.742965698E-1,-2.644477487E-1
1.363156162E0,1.009685040E0,5.462360382E-1,-8.872197866E-1
1.368161044E0,1.703604460E-1,-2.822303772E-2,-1.528197885E0
1.373196445E0,-1.261377335E-1,-3.651838303E-1,-1.596708179E0
1.378201328E0,-4.001638889E-1,-3.823413849E-1,-1.574101210E0
1.383206210E0,-4.847865105E-1,-3.503627777E-1,-1.495983720E0
1.388211093E0,-8.119235039E-1,-3.864183426E-1,-1.484876633E0
1.393215976E0,-1.093057632E0,-4.856672287E-1,-1.305461168E0
1.398251376E0,-1.376239061E0,-4.486637115E-1,-1.006198406E0
1.403256259E0,-1.608063698E0,-4.278345108E-1,-8.811038733E-1
1.408261142E0,-1.484270811E0,-2.357892990E-1,-9.151371717E-1
1.413266025E0,-1.452222109E0,-2.473268509E-1,-1.015327334E0
1.418270908E0,-1.598233938E0,-5.151662827E-1,-8.480014205E-1
1.423306308E0,-1.848597765E0,-7.842044830E-1,-6.324827075E-1
1.428311191E0,-1.946814537E0,-7.697944641E-1,-6.344600916E-1
1.433316074E0,-1.969147682E0,-4.786100388E-1,-2.933700085E-1
1.438320956E0,-1.970953941E0,-1.529264450E-1,-1.038961411E-1
1.443325839E0,-1.624985933E0,7.171440125E-2,6.782329082E-2
1.448361240E0,-1.331147194E0,3.232202530E-1,2.725588083E-1
1.453366122E0,-1.229839325E0,6.463317871E-1,5.807884932E-1
1.458371005E0,-1.080299616E0,1.063467979E0,1.001998663E0
1.463375888E0,-1.083495855E0,1.436048508E0,1.156004190E0
1.468380771E0,-1.092831850E0,1.555568695E0,1.109591365E0
1.473416171E0,-9.706671238E-1,1.446102142E0,1.255282879E0
1.478421054E0,-9.820437431E-1,1.102184296E0,1.795313835E0
1.483425937E0,-1.247648716E0,9.311122894E-1,1.866816759E0
1.488430820E0,-1.419378281E0,7.740650177E-1,2.408324718E0
1.493435703E0,-1.857653856E0,7.068271637E-1,2.279711723E0
1.498471103E0,-2.198033333E0,5.047883987E-1,1.436727524E0
1.503475986E0,-2.365577221E0,1.457490921E-1,9.519599676E-1
1.508480869E0,-2.763446331E0,-2.163925171E-1,6.020721197E-1
1.513485751E0,-2.959178925E0,-3.703918457E-1,8.005675077E-1
1.518490634E0,-2.952079296E0,-3.814153671E-1,9.937796593E-1
1.523526035E0,-2.828938961E0,-3.975000381E-1,8.814195395E-1
1.528530917E0,-2.784658909E0,-5.916013718E-1,8.710141182E-1
1.533535800E0,-2.831587315E0,-7.373561859E-1,8.405138254E-1
1.538540683E0,-2.823093891E0,-7.158298492E-1,5.548539162E-1
1.543545566E0,-2.801497936E0,-7.709045410E-1,3.507279158E-1
1.548580966E0,-2.884114265E0,-8.742742538E-1,2.434114218E-1
1.553585849E0,-2.858507633E0,-1.098666191E0,1.961596012E-1
1.558590732E0,-2.803050041E0,-1.236897469E0,2.767395973E-2
1.563595615E0,-2.815442085E0,-1.347558022E0,-1.176329851E-1
1.568600497E0,-2.838755608E0,-1.434638023E0,-2.586098909E-1
1.573635898E0,-2.860378265E0,-1.558221817E0,-3.512146473E-1
1.578640781E0,-2.706199169E0,-1.695037842E0,-6.501585245E-1
1.583645664E0,-2.406534672E0,-1.912964821E0,-9.862275124E-1
1.588650546E0,-2.076645374E0,-2.114071846E0,-1.281970501E0
1.593655429E0,-1.919882298E0,-2.271283150E0,-1.475655913E0
1.598690830E0,-1.723483562E0,-2.304980278E0,-1.819157958E0
1.603695712E0,-1.577803135E0,-2.349693298E0,-2.052438259E0
1.608700595E0,-1.500288963E0,-2.462602615E0,-2.107448101E0
1.613705478E0,-1.446096420E0,-2.575366020E0,-2.033639431E0
1.618710361E0,-1.355605125E0,-2.711510658E0,-1.931635857E0
1.623745761E0,-1.466607571E0,-2.726091385E0,-1.825088978E0
1.628750644E0,-1.685734749E0,-2.607831955E0,-1.885770082E0
1.633755527E0,-1.812060356E0,-2.650509834E0,-1.814539552E0
1.638760410E0,-2.048407555E0,-2.971445084E0,-1.851649880E0
1.643765292E0,-2.692041397E0,-3.203787804E0,-1.807262301E0
1.648800693E0,-2.904911041E0,-3.418786049E0,-1.384254336E0
1.653805576E0,-3.044479370E0,-3.710744858E0,-1.285804033E0
1.658810458E0,-3.386398315E0,-3.420053482E0,-8.948253989E-1
1.663815341E0,-3.318289757E0,-2.800394058E0,1.598736048E-1
1.668820224E0,-2.684458256E0,-2.655870438E0,8.112305403E-1
1.673855624E0,-2.469608784E0,-2.630982399E0,1.143397808E0
1.678860507E0,-2.189284801E0,-2.566182137E0,1.469861507E0
1.683865390E0,-2.338879108E0,-2.467491150E0,1.457799673E0
1.688870273E0,-2.051585674E0,-2.438196182E0,1.227581739E0
1.693875156E0,-1.779289246E0,-2.578992844E0,1.151395321E0
1.698910556E0,-1.626273632E0,-2.603481293E0,1.030139446E0
1.703915439E0,-1.261290550E0,-2.642993927E0,9.978410006E-1
1.708920322E0,-6.914024353E-1,-2.735833168E0,1.045239925E0
1.713925205E0,-1.198430061E-1,-2.755024910E0,9.444215894E-1
1.718930087E0,4.256701469E-1,-2.617297173E0,7.800503969E-1
1.723965488E0,1.110910416E0,-2.572657585E0,7.528818846E-1
1.728970371E0,1.760831356E0,-2.535431862E0,5.159947872E-1
1.733975253E0,2.458043098E0,-2.629553795E0,1.772643924E-1
1.738980136E0,3.067010403E0,-2.628488541E0,-9.427359700E-2
1.743985019E0,3.737630844E0,-2.582259178E0,-1.707483232E-1
1.748989902E0,4.426139832E0,-2.489816666E0,-1.105986238E0
1.754025302E0,5.059335709E0,-1.499088287E0,-2.117211103E0
1.759030185E0,5.890623569E0,-2.385325432E0,-2.416044474E0
1.764035068E0,5.268301964E0,-2.540699005E0,-2.412062645E0
1.769039951E0,4.550698757E0,-2.401651382E0,-2.146391392E0
1.774044833E0,3.429504871E0,-2.501683235E0,-3.232687235E0
1.779080234E0,3.152525902E0,-2.555081367E0,-2.652199507E0
1.784085117E0,3.084736824E0,-3.333191872E0,-1.313536406E0
1.789089999E0,2.603552818E0,-4.409079552E0,-1.319713593E0
1.794094882E0,2.715943813E0,-4.144681931E0,-8.648272753E-1
1.799099765E0,2.701479912E0,-4.771900177E0,-2.234794199E-1
1.804135165E0,2.532852650E0,-4.697303772E0,5.342317820E-1
1.809140048E0,2.136288166E0,-5.158307076E0,4.525856078E-1
1.814144931E0,2.053595066E0,-4.635785103E0,-1.348649263E-1
1.819149814E0,2.031083584E0,-4.338788033E0,-3.831667006E-1
1.824154697E0,1.399581432E0,-3.920210838E0,-9.232242107E-1
1.829190097E0,1.512215614E0,-3.721173286E0,-1.796087027E0
1.834194980E0,1.180053234E0,-3.342192650E0,-1.681332827E0
1.839199863E0,1.455646515E0,-2.183338165E0,-6.184178591E-1
1.844204746E0,1.358108044E0,-1.077068329E0,2.851368189E-1
1.849209628E0,1.855832577E0,-2.265939713E-1,1.853594184E0
1.854245029E0,2.127845049E0,1.325159073E-1,2.493122578E0
1.859249912E0,4.431281090E0,8.428964615E-1,5.106802940E0
1.864254794E0,5.420374870E0,2.666893959E0,7.333791256E0
1.869259677E0,4.137065887E0,3.785216331E0,8.126626015E0
1.874264560E0,5.644306660E0,5.072120667E0,7.966679096E0
1.879299960E0,3.547000408E0,7.001321793E0,5.495676994E0
1.884304843E0,1.867844105E0,2.440712929E0,-3.076354980E0
1.889309726E0,4.902441025E0,6.429409981E0,-1.187977076E0
1.894314609E0,-1.843412399E0,2.179631233E0,-4.902404308E0
1.899319492E0,5.090449333E0,5.139202118E0,-1.258541584E0
1.904354892E0,-5.041376114E0,6.960020065E-1,-1.826444387E0
1.909359775E0,-4.018841743E0,-2.139114380E0,-4.347341061E0
1.914364658E0,-6.440794468E-2,5.679035187E-2,-1.640313864E0
1.919369540E0,-2.149993896E0,-1.487579346E-1,-2.701932490E-1
1.924374423E0,-4.743340492E0,-2.605072975E0,-7.409223318E-1
1.929379306E0,-3.282655954E0,-3.869599342E0,-1.285451770E0
1.934414706E0,-3.407217979E0,-3.868277550E0,-2.084676981E0
1.939419589E0,-3.881793261E0,-3.786945343E0,-6.602630615E-1
1.944424472E0,-3.815165758E0,-4.042222023E0,1.120489836E0
1.949429355E0,-3.267895460E0,-3.937738419E0,2.371978998E0
1.954434238E0,-1.820239782E0,-3.848570824E0,2.806436539E0
1.959439121E0,-1.116618991E0,-2.892665863E0,2.932861805E0
1.964474521E0,-4.584326744E-1,-1.527737617E0,3.230703592E0
1.969479404E0,1.246389985E0,-8.050222397E-1,2.934940100E0
1.974484287E0,2.490158081E0,1.004112244E0,1.466910958E0
1.979489169E0,3.859821796E0,3.464849472E0,1.609330297E0
1.984494052E0,3.783079386E0,3.988570213E0,1.307337523E0
1.989498935E0,3.382427454E0,3.615541458E0,1.964926273E-1
1.994503818E0,3.519846916E0,3.122695923E0,-3.869336247E-1
1.999539218E0,2.947184086E0,2.765605927E0,-1.035693407E0
2.004544101E0,2.259327173E0,2.388201714E0,-1.484382153E0
2.009548984E0,1.547186136E0,2.318243027E0,-2.188207150E0
2.014553867E0,5.817186832E-1,2.364691734E0,-2.933746815E0
2.019589267E0,3.933410645E-1,2.589447975E0,-3.168543339E0
2.024594150E0,-6.874608994E-2,2.839805603E0,-3.285223007E0
2.029629550E0,-5.131492615E-1,3.750295639E0,-3.423122406E0
2.034634433E0,-6.023504734E-1,4.485738754E0,-3.308635950E0
2.039639316E0,-1.291190624E0,5.114104271E0,-3.535573959E0
2.044644199E0,-1.347469091E0,5.846597672E0,-4.088330746E0
2.049649081E0,-9.350862503E-1,5.656344414E0,-4.183917046E0
2.054684482E0,-9.622635841E-1,5.175326347E0,-4.328141212E0
2.059689365E0,-2.990794182E-2,5.422679901E0,-4.245368481E0
2.064694247E0,1.459527731E0,5.800451279E0,-4.255944252E0
2.069699130E0,1.221148252E0,5.528944016E0,-3.850457907E0
2.074704013E0,2.772160530E0,4.981026649E0,-3.743947744E0
2.079739414E0,2.830981493E0,4.573145866E0,-4.402780533E0
2.084744296E0,2.864083767E0,4.212342262E0,-5.004115582E0
2.089749179E0,4.252447605E0,3.579927444E0,-5.207194805E0
2.094754062E0,4.097984314E0,3.076755524E0,-5.327126026E0
2.099758945E0,3.439734459E0,2.631180763E0,-5.920342922E0
2.104794345E0,2.047649384E0,2.021402359E0,-6.035769463E0
2.109799228E0,1.934910297E0,1.411481857E0,-5.517278671E0
2.114804111E0,2.739670753E0,1.239836693E0,-5.007038116E0
2.119808994E0,9.895682335E-1,7.737789154E-1,-4.294468880E0
2.124813876E0,1.158550262E0,6.837368011E-1,-3.765951395E0
2.129849277E0,2.212697506E0,7.455291748E-1,-3.089105129E0
2.134854160E0,2.921346664E0,5.169181824E-1,-2.136536360E0
2.139859042E0,2.577816963E0,-1.025838852E-1,-4.803000689E-1
2.144863925E0,2.481306553E0,-6.253433228E-1,6.431429982E-1
2.149868808E0,3.415336609E0,-9.886064529E-1,8.227828145E-1
2.154904208E0,3.769042969E0,-1.640685081E0,9.896798134E-1
2.159909091E0,4.138608932E0,-1.882761955E0,8.602308035E-1
2.164913974E0,4.499564171E0,-1.927396774E0,9.265882969E-1
2.169918857E0,4.432928085E0,-1.905785561E0,1.279857516E0
2.174923740E0,3.892125130E0,-1.991785049E0,1.017848372E0
2.179928622E0,3.015335560E0,-2.343045235E0,1.101359963E0
2.184964023E0,2.259614468E0,-3.047301292E0,1.544372439E0
2.189968906E0,2.050835371E0,-3.723460197E0,1.453606844E0
2.194973789E0,2.356994867E0,-4.077835083E0,8.758055568E-1
2.199978671E0,1.512280941E0,-4.286816597E0,5.099855065E-1
2.204983554E0,-1.733255386E0,-5.138453484E0,2.950174212E-1
2.210018955E0,-3.027627945E0,-5.984626770E0,4.127876163E-1
2.215023837E0,-6.833004951E-1,-7.411444664E0,2.630038500E0
2.220028720E0,2.085026264E0,-6.768089294E0,3.414135218E0
2.225033603E0,4.827159882E0,-4.540403366E0,3.610672712E0
2.230038486E0,5.420596600E0,-2.668801308E0,3.143503428E0
2.235073886E0,4.356137753E0,-1.273316383E0,2.634115934E0
2.240078769E0,3.041269064E0,3.017530441E-1,2.220281124E0
2.245083652E0,1.344433546E0,1.728820801E0,2.233926773E0
2.250088535E0,4.465422630E-1,2.753639221E0,2.094807148E0
2.255093417E0,2.339966297E-1,3.408993721E0,1.441416264E0
2.260128818E0,1.464179039E0,3.213849068E0,1.319015980E0
2.265133701E0,2.905286312E0,2.152868271E0,1.437039733E0
2.270138583E0,3.393136024E0,1.385935783E0,1.359901905E0
2.275143466E0,3.502557278E0,8.584547043E-1,1.116338015E0
2.280148349E0,3.609386921E0,3.777446747E-1,9.469567537E-1
2.285183749E0,3.799521208E0,-4.649162292E-2,9.235216379E-1
2.290188632E0,3.730652094E0,-6.006603241E-1,9.439803362E-1
2.295193515E0,3.378528118E0,-1.215398788E0,9.875447750E-1
2.300198398E0,2.791520119E0,-1.882299423E0,8.802957535E-1
2.305203281E0,2.228845835E0,-2.031225204E0,4.009934664E-1
2.310238681E0,1.667349339E0,-1.740676880E0,-1.902710199E-1
2.315243564E0,1.696634531E0,-1.694954872E0,-2.765229940E-1
2.320248447E0,1.820347786E0,-1.549263000E0,2.431747913E-1
2.325253330E0,1.005919933E0,-9.532537460E-1,8.666390181E-1
2.330258212E0,1.116441488E0,-8.079872131E-1,1.019851446E0
2.335293613E0,1.358481169E0,-7.867069244E-1,1.259524941E0
2.340298496E0,1.213605881E0,-5.852451324E-1,1.255897641E0
2.345303378E0,1.113891840E0,-1.358089447E-1,1.229253411E0
2.350308261E0,1.136028767E0,3.592081070E-1,1.307441354E0
2.355313144E0,1.351255655E0,8.004331589E-1,1.118479013E0
2.360348544E0,1.109112978E0,1.298892021E0,1.008222103E0
2.365353427E0,5.318818092E-1,1.745979309E0,8.788146973E-1
2.370358310E0,-1.105854511E-1,1.959711075E0,5.702629089E-1
2.375363193E0,-1.207136869E0,1.810893059E0,2.526562214E-1
2.380368076E0,-2.531090498E0,1.391757965E0,5.827486515E-2
2.385403476E0,-3.159235954E0,1.171704292E0,-2.568261623E-1
2.390408359E0,-3.387716532E0,1.083542824E0,-6.038134098E-1
2.395413242E0,-3.237113476E0,1.016316414E0,-1.085734010E0
2.400418124E0,-2.931036234E0,1.007502556E0,-1.510026097E0
2.405423007E0,-2.365034342E0,1.338126183E0,-1.927617788E0
2.410458408E0,-1.706214666E0,1.820096970E0,-2.049108982E0
2.415463290E0,-1.159095764E0,2.140002251E0,-2.004028320E0
2.420468173E0,-1.018573999E0,2.368049622E0,-1.760506511E0
2.425473056E0,-1.131485701E0,2.516545296E0,-1.457329869E0
2.430477939E0,-1.122878551E0,2.494227409E0,-1.190964818E0
2.435513339E0,-1.087155581E0,2.300615311E0,-1.107306838E0
2.440518222E0,-1.443845510E0,1.657436371E0,-7.937036753E-1
2.445523105E0,-1.060980797E0,8.323993683E-1,-7.779504061E-1
2.450527988E0,-7.155323029E-2,3.910484314E-1,-9.252279997E-1
2.455532871E0,5.092854500E-1,3.664369583E-1,-8.738123178E-1
2.460568271E0,6.674613953E-1,4.443550110E-1,-7.295968533E-1
2.465573154E0,5.271759033E-1,5.469141006E-1,-1.085934281E0
2.470578037E0,7.638497353E-1,2.357501984E-1,-6.180841923E-1
2.475582919E0,9.964935780E-1,-1.761980057E-1,3.660262823E-1
2.480587802E0,9.272356033E-1,-2.535696030E-1,9.066270590E-1
2.485623203E0,5.860300064E-1,-1.174793243E-1,1.209868670E0
2.490628085E0,4.752893448E-1,3.624916077E-2,1.295754671E0
2.495632968E0,5.286509991E-1,6.309890747E-2,1.306800127E0
2.500637851E0,4.603967667E-1,8.870697021E-2,1.110467196E0
2.505642734E0,3.505713940E-1,1.274271011E-1,8.489881754E-1
2.510678134E0,8.176064491E-2,1.052436829E-1,6.113446951E-1
2.515683017E0,-1.745100021E-1,4.050827026E-2,3.052501678E-1
2.520687900E0,-2.040290833E-2,-2.662630081E-1,1.772022247E-2
2.525692783E0,5.706784725E-1,-4.233007431E-1,-2.324117422E-1
2.530697665E0,6.215755939E-1,-2.400703430E-1,-2.811409235E-1
2.535733066E0,5.212519169E-1,-1.928615570E-2,-2.206232548E-1
2.540737949E0,3.947761059E-1,1.868581772E-1,-1.647276878E-1
2.545742831E0,4.233896732E-1,2.018051147E-1,-1.012750864E-1
2.550747714E0,5.649039745E-1,1.800584793E-1,-5.051207542E-2
2.555752597E0,5.973613262E-1,5.345535278E-2,1.770615578E-2
2.560787997E0,7.064273357E-1,-2.055273056E-1,1.947526932E-1
2.565792880E0,7.572648525E-1,-4.617481232E-1,4.383902550E-1
2.570797763E0,6.690027714E-1,-5.623950958E-1,6.472657919E-1
2.575802646E0,4.290461540E-1,-6.391210556E-1,7.820349932E-1
2.580807529E0,1.984083652E-1,-8.935489655E-1,1.063254356E0
2.585812412E0,-2.604866028E-2,-1.063263893E0,1.330466866E0
2.590847812E0,-3.847026825E-1,-1.139612198E0,1.575477004E0
2.595852695E0,-5.172028542E-1,-1.172488213E0,1.566946745E0
2.600857578E0,-4.484446049E-1,-1.080830574E0,1.523991466E0
2.605862460E0,-8.237385750E-2,-8.316183090E-1,1.300998449E0
2.610867343E0,2.223234177E-1,-4.795532227E-1,7.989090681E-1
2.615902744E0,5.413293839E-1,-3.254575729E-1,9.764432907E-3
2.620907626E0,7.439875603E-1,-8.541011810E-2,-6.275886297E-1
2.625912509E0,4.517905712E-1,2.006053925E-2,-1.523680925E0
2.630917392E0,3.591775894E-2,6.021595001E-2,-2.357306957E0
2.635922275E0,1.915125847E-1,1.162919998E-1,-2.815931559E0
2.640957675E0,1.529896498E0,1.946659088E-1,-2.829959393E0
2.645962558E0,2.524575472E0,2.164554596E-2,-2.624748468E0
2.650967441E0,2.259798288E0,-4.828958511E-1,-2.162265778E0
2.655972324E0,1.862880707E0,-9.243659973E-1,-1.731363416E0
2.660977206E0,1.959787607E0,-1.224349976E0,-1.558181167E0
2.666012607E0,2.678181410E0,-1.059127808E0,-8.205190897E-1
2.671017490E0,3.605347872E0,-2.467899323E-1,2.290635586E0
2.676022372E0,3.809979439E0,6.372461319E-1,6.544833183E0
2.681027255E0,2.914561033E0,1.774272919E-1,1.824263096E0
2.686032138E0,4.269080162E0,4.335222244E-1,2.300285339E0
2.691067539E0,5.733139992E0,1.125175476E0,2.983050823E0
2.696072421E0,6.078186512E0,1.327951431E0,3.591960430E0
2.701077304E0,5.363538742E0,1.189909935E0,3.894414425E0
2.706082187E0,5.084677219E0,1.129082680E0,3.855241776E0
2.711087070E0,4.856364250E0,7.900800705E-1,3.789402246E0
2.716122470E0,4.433077812E0,1.920223236E-1,3.582575321E0
2.721127353E0,4.512593269E0,-1.984214783E-2,3.153952122E0
2.726132236E0,4.720574379E0,4.983758926E-1,2.585133791E0
2.731137119E0,4.327383995E0,8.297910690E-1,1.841308117E0
2.736142001E0,3.733935356E0,5.662364960E-1,1.079804540E0
2.741177402E0,4.703955173E0,1.128176689E0,3.714498281E-1
2.746182285E0,5.628091812E0,1.837377548E0,3.305855691E-1
2.751187167E0,6.189843178E0,2.397970200E0,7.224207520E-1
2.756192050E0,6.803664207E0,2.677395821E0,1.012978315E0
2.761196933E0,6.619111061E0,2.663915634E0,1.616178155E0
2.766232333E0,5.967620373E0,2.536221504E0,2.340977669E0
2.771237216E0,5.254519463E0,2.298885345E0,2.615556955E0
2.776242099E0,4.933673859E0,2.028993607E0,2.757366896E0
2.781246982E0,4.465095520E0,1.817760468E0,2.516083002E0
2.786251865E0,3.764604092E0,1.842575073E0,1.566109300E0
2.791287265E0,3.980934620E0,1.920747757E0,5.222966671E-1
2.796292148E0,4.695193291E0,1.954805374E0,-6.348068118E-1
2.801297031E0,4.760447025E0,1.850295067E0,-1.529309511E0
2.806301914E0,4.346207619E0,1.696168900E0,-1.957683682E0
2.811306796E0,4.323607445E0,1.724688530E0,-2.790460587E0
2.816342197E0,4.141147614E0,1.715717316E0,-4.235149860E0
2.821347080E0,3.301423073E0,1.601819038E0,-4.329853058E0
2.826351962E0,2.679184675E0,1.276936531E0,-3.530409813E0
2.831356845E0,1.804717541E0,8.812971115E-1,-2.667996407E0
2.836361728E0,1.537539005E0,6.372938156E-1,-2.301762342E0
2.841397128E0,1.329165936E0,3.790569305E-2,-2.034917593E0
2.846402011E0,1.385052919E0,-3.617534637E-1,-1.756211400E0
2.851406894E0,1.647529840E0,-1.702060699E-1,-1.463229656E0
2.856411777E0,1.523307204E0,-5.768585205E-2,-9.112489223E-1
2.861416660E0,5.607794523E-1,-1.663274765E-1,1.543357372E-1
2.866452060E0,7.473185658E-3,5.944252014E-3,3.113222718E-1
2.871456943E0,-2.938570976E-1,-4.955005646E-2,1.225861311E0
2.876461826E0,-9.102249146E-1,-5.323400497E-1,1.792638063E0
2.881466708E0,-1.260173321E0,-1.065541267E0,1.649248719E0
2.886471591E0,-1.522810459E0,-1.587118149E0,9.685822725E-1
2.891506992E0,-2.012751102E0,-2.379188538E0,1.387759566E0
2.896511874E0,-3.987703800E0,-3.592449188E0,6.181733012E-1
2.901516757E0,-4.937896729E0,-4.750772476E0,1.440482140E-1
2.906521640E0,-5.742268085E0,-6.371935844E0,-1.706098557E0
2.911526523E0,-6.035604954E0,-8.371420860E0,-4.323606491E0
2.916561923E0,-6.398657799E0,-9.819761276E0,-5.181410789E0
2.921566806E0,-6.489145279E0,-1.048535252E1,-5.007300377E0
2.926571689E0,-7.438679218E0,-1.074648571E1,-4.617495537E0
2.931576572E0,-8.277005196E0,-1.070183754E1,-3.439515352E0
2.936581455E0,-9.557680130E0,-9.711737633E0,-1.728157759E0
2.941616855E0,-9.589309692E0,-8.452246666E0,4.769021273E-1
2.946621738E0,-8.801091194E0,-7.321199417E0,2.163577080E0
2.951626621E0,-8.298376083E0,-6.652607918E0,3.317221165E0
2.956631503E0,-7.697493553E0,-6.141593933E0,3.914845228E0
2.961636386E0,-7.034204960E0,-5.675898552E0,3.814907074E0
2.966671787E0,-6.147067070E0,-5.201811790E0,3.337092876E0
2.971676669E0,-5.071859837E0,-4.737016678E0,2.847954750E0
2.976681552E0,-3.673318386E0,-4.175239563E0,1.540616274E0
2.981686435E0,-3.094137669E0,-3.319611549E0,5.911034942E-1
2.986691318E0,-2.720744610E0,-2.551507950E0,5.315588713E-1
2.991726718E0,-1.695320725E0,-1.617377281E0,-4.513258040E-1
2.996731601E0,-1.776409149E-2,-6.434783936E-1,-1.994017601E0
3.001736484E0,2.894487381E0,1.280063629E0,-5.118550301E0
3.006741367E0,4.893122673E0,3.611004829E0,-7.607059479E0
3.011746249E0,6.300973892E0,5.479934692E0,-8.821148872E0
3.016751132E0,5.590221882E0,5.971869469E0,-8.075107574E0
3.021786533E0,4.867607117E0,5.404921532E0,-4.608880997E0
3.026791415E0,3.956431866E0,4.860329628E0,-1.491705179E0
3.031796298E0,4.346332073E0,4.703168869E0,1.091245890E0
3.036801181E0,4.293710709E0,4.275122643E0,2.323820829E0
3.041806064E0,3.559653759E0,3.479579926E0,2.430853367E0
3.046841464E0,3.119770288E0,2.877364159E0,2.349753618E0
3.051846347E0,2.595211983E0,2.750086784E0,2.278033733E0
3.056851230E0,2.190046310E0,2.608116150E0,1.667673588E0
3.061856113E0,2.464621544E0,2.394180298E0,1.027213693E0
3.066860996E0,2.733437061E0,1.961576462E0,5.849950314E-1
3.071896396E0,2.671256304E0,1.303524971E0,4.996616840E-1
3.076901279E0,2.629786253E0,7.012910843E-1,5.951133370E-1
3.081906162E0,2.643318892E0,3.029985428E-1,5.926491022E-1
3.086911044E0,2.723366737E0,2.242355347E-1,1.943707615E-1
3.091915927E0,2.792000055E0,7.733631134E-2,5.387214944E-3
3.096951328E0,2.393583775E0,-3.550710678E-1,-4.020409193E-3
3.101956210E0,1.688164949E0,-9.552078247E-1,2.232423127E-1
3.106961093E0,7.949703932E-1,-1.555417061E0,5.087938309E-1
3.111965976E0,-8.488979936E-2,-2.175898552E0,6.030331850E-1
3.116970859E0,-7.846546173E-1,-2.542776108E0,6.172028780E-1
3.122006259E0,-1.289168239E0,-2.677917480E0,5.957575440E-1
3.127011142E0,-1.737339377E0,-2.802754402E0,5.193405151E-1
3.132016025E0,-1.838184714E0,-2.827705383E0,-1.666901708E-1
3.137020908E0,-1.916229367E0,-3.009989738E0,-8.632840514E-1
3.142025790E0,-2.027113676E0,-3.226395607E0,-9.282282591E-1
3.147061191E0,-2.877495766E0,-3.418401718E0,-9.031796455E-1
3.152066074E0,-3.637857437E0,-3.558627129E0,-7.715024948E-1
3.157070956E0,-4.273139477E0,-3.850395203E0,-6.985865235E-1
3.162075839E0,-4.857925892E0,-4.054434776E0,-5.640820265E-1
3.167080722E0,-5.213349342E0,-4.266494751E0,-7.807840109E-1
3.172116122E0,-5.740565300E0,-4.558268547E0,-1.732315421E0
3.177121005E0,-5.493236542E0,-4.683440208E0,-2.528782129E0
3.182125888E0,-5.425712109E0,-4.208415985E0,-2.302331686E0
3.187130771E0,-4.345074654E0,-3.279913902E0,-2.629340887E0
3.192135654E0,-4.406398773E0,-3.118898392E0,-3.243741751E0
3.197171054E0,-5.243754387E0,-3.773030281E0,-2.755498171E0
3.202175937E0,-3.384324789E0,-3.602225304E0,-2.262639761E0
3.207180820E0,-4.417187691E0,-3.536337852E0,-1.437030554E0
3.212185703E0,-5.419495583E0,-4.407975197E0,-1.094560385E0
3.217190585E0,-7.873040676E0,-5.900905609E0,1.301415801E0
3.222225986E0,1.209441423E-1,-4.886992455E0,6.430163980E-1
3.227230869E0,9.383769035E-1,-4.394590378E0,-1.964733362E0
3.232235751E0,-6.190103889E-1,-3.878903389E0,-1.640381098E0
3.237240634E0,1.208898783E0,-3.150750160E0,7.822880149E-1
3.242245517E0,2.123638630E0,-2.606349945E0,1.921206355E0
3.247280917E0,1.143741012E0,-2.166685104E0,2.341617584E0
3.252285800E0,1.598653793E-1,-1.627262115E0,2.309880018E0
3.257290683E0,3.452570438E-1,-1.341874123E0,2.270900249E0
3.262295566E0,3.391017914E-1,-1.392707825E0,1.972120523E0
3.267300449E0,-1.194152832E-1,-3.857154846E-1,1.649269462E0
3.272335849E0,-6.477686167E-1,5.793495178E-1,9.987224936E-1
3.277340732E0,-7.206262350E-1,1.470169067E0,-7.870965004E-1
3.282345615E0,-4.048465490E-1,2.337123871E0,-2.391712666E0
3.287350497E0,-1.825046420E0,2.662701607E0,-4.378249168E0
3.292355380E0,-8.052401543E-1,4.217213631E0,-5.040787220E0
3.297390781E0,1.147251606E0,5.946730614E0,-5.315520763E0
3.302395664E0,1.168402910E0,6.983570099E0,-6.072046280E0
3.307400546E0,5.707738400E-1,7.246703148E0,-5.675064564E0
3.312405429E0,1.293298483E0,7.351997375E0,-5.234025955E0
3.317410312E0,1.188866615E0,7.239777565E0,-5.575821877E0
3.322445712E0,1.703172445E0,6.475273132E0,-5.413473129E0
3.327450595E0,2.729089022E0,5.342738152E0,-4.825279713E0
3.332455478E0,2.975783110E0,4.127679825E0,-3.643449306E0
3.337460361E0,2.185743809E0,2.502042770E0,-2.607367039E0
3.342465244E0,-1.323939323E0,1.106645584E0,-1.945654392E0
3.347500644E0,-1.311810970E0,5.231389999E-1,-1.656104803E0
3.352505527E0,-1.249766588E0,-8.185863495E-2,-1.663435340E0
3.357510410E0,-9.145121574E-1,-3.867073059E-1,-2.342172861E0
3.362515292E0,-1.968035698E-1,-3.838891983E-1,-2.510015726E0
3.367520175E0,-3.118550777E-1,-5.098619461E-1,-2.568992615E0
3.372555576E0,-7.151300907E-1,-4.917497635E-1,-3.116762877E0
3.377560458E0,-1.091412783E0,-6.359558105E-1,-3.321922541E0
3.382565341E0,-1.726841688E0,-1.426689148E0,-3.363024712E0
3.387570224E0,-2.308011055E-1,-2.383181572E0,-1.624098539E0
3.392575107E0,1.261734962E0,-2.619688034E0,-1.328079700E0
3.397610507E0,4.124464989E-1,-3.101340294E0,-1.973471045E0
3.402615390E0,9.965434074E-1,-3.634104729E0,-2.052564144E0
3.407620273E0,3.311079025E0,-3.358306885E0,-3.062389851E0
3.412625156E0,1.009628010E1,-9.567375183E-1,-6.279151440E0
3.417630039E0,7.865016460E0,7.249031067E-1,-4.282051086E0
3.422665439E0,7.659940720E-1,8.056535721E-1,-2.754873753E0
3.427670322E0,6.649241447E-1,4.459428787E-1,-1.553357124E0
3.432675205E0,2.995881081E0,1.125259399E-1,-1.128215417E-1
3.437680087E0,3.201296329E0,-3.032217026E-1,1.492725730E0
3.442684970E0,1.995247364E0,-6.260070801E-1,2.479685068E0
3.447720371E0,1.430051327E0,-9.570159912E-1,3.096236706E0
3.452725253E0,1.662693977E0,-1.146319389E0,3.681812525E0
3.457730136E0,2.123333931E0,-6.510305405E-1,3.815647840E0
3.462735019E0,2.914780140E0,1.239976883E-1,3.533602238E0
3.467739902E0,2.846547604E0,7.689905167E-1,3.553125620E0
3.472744785E0,3.752028942E0,5.848178864E-1,3.606341362E0
3.477780185E0,3.052977085E0,2.340488434E-1,4.355235100E0
3.482785068E0,2.322414875E0,5.564203262E-1,4.926735401E0
3.487789951E0,2.176451683E0,1.010174751E0,4.574971199E0
3.492794833E0,1.942707539E0,9.831390381E-1,3.296935797E0
3.497799716E0,2.138397217E0,9.012002945E-1,2.085102558E0
3.502835117E0,2.848452091E0,7.012853622E-1,1.634706736E0
3.507839999E0,3.271213055E0,5.927448273E-1,1.402155399E0
3.512844882E0,3.191885948E0,3.245134354E-1,8.608967066E-1
3.517849765E0,3.301458359E0,8.782958984E-2,3.898683190E-1
3.522854648E0,3.006762981E0,-1.179351807E-1,2.574033737E-1
3.527890048E0,2.435654163E0,-3.049850464E-1,2.329510003E-1
3.532894931E0,1.791942120E0,-5.277070999E-1,4.908196330E-1
3.537899814E0,1.165903568E0,-8.871879578E-1,7.823773623E-1
3.542904697E0,8.489117622E-1,-1.094881058E0,8.684592247E-1
3.547909580E0,6.346240044E-1,-1.206976891E0,9.112084508E-1
3.552944980E0,4.199566841E-1,-1.227106094E0,1.238610029E0
3.557949863E0,5.265760422E-2,-1.223219872E0,1.828282356E0
3.562954746E0,-9.361195564E-1,-1.050128937E0,2.332206488E0
3.567959628E0,-2.239022732E0,-5.655460358E-1,2.395244122E0
3.572964511E0,-2.083926201E0,-4.151325226E-1,2.131900072E0
3.577999912E0,-5.333280563E-2,-3.839826584E-1,1.232697845E0
3.583004794E0,3.580770493E-1,-1.925258636E-1,2.641915679E-1
3.588009677E0,2.903394699E-1,2.253303528E-1,-1.336255670E-1
3.593014560E0,1.139224052E0,4.533767700E-1,-3.678717613E-1
3.598019443E0,1.342750549E0,6.431818008E-1,-1.309139132E0
3.603054843E0,4.380655289E-2,9.460439682E-1,-2.502271652E0
3.608059726E0,-1.010385513E0,1.180212021E0,-3.708287716E0
3.613064609E0,-1.844494343E0,1.342491150E0,-6.682126045E0
3.618069492E0,-2.872524261E0,1.319163322E0,-8.758199692E0
3.623074374E0,-3.302151203E0,1.070263863E0,-8.289915085E0
3.628109775E0,-3.738114834E0,8.575439453E-1,-7.182431698E0
3.633114658E0,-3.340626717E0,9.578685760E-1,-6.111320019E0
3.638119540E0,-2.466589451E0,1.002023697E0,-4.829022884E0
3.643124423E0,-1.849639416E0,8.744735718E-1,-3.341574430E0
3.648129306E0,-1.227557182E0,5.212278366E-1,-1.827883601E0
3.653164706E0,-7.895164490E-1,-1.088609695E-1,-6.349768639E-1
3.658169589E0,-5.611343384E-1,-5.666484833E-1,1.700741053E-1
3.663174472E0,-2.998089790E-1,-7.922172546E-1,7.601057291E-1
3.668179355E0,-5.190567970E-1,-8.810882568E-1,1.217312455E0
3.673184238E0,-3.921351433E-1,-1.043294907E0,1.454513550E0
3.678219638E0,1.101746559E-1,-9.927635193E-1,1.624867201E0
3.683224521E0,6.983265877E-1,-7.406482697E-1,1.674033642E0
3.688229404E0,1.395328045E0,-4.463605881E-1,1.622804165E0
3.693234287E0,1.893161297E0,-1.940126419E-1,1.505615234E0
3.698239169E0,1.784923077E0,-1.691045761E-1,1.463314772E0
3.703274570E0,1.190543175E0,-2.574653625E-1,1.410215735E0
3.708279453E0,2.995991707E-1,-3.066101074E-1,1.038236499E0
3.713284335E0,-7.497925758E-1,-2.683305740E-1,3.699624538E-1
3.718289218E0,-1.494079590E0,-8.288764954E-2,-4.233378172E-1
3.723294101E0,-1.701725960E0,-1.226167679E-1,-8.202382326E-1
3.728329501E0,-1.660340309E0,-1.153316498E-1,-9.543460608E-1
3.733334384E0,-1.664270401E0,-3.199033737E-1,-8.301366568E-1
3.738339267E0,-1.685503960E0,-5.435028076E-1,-7.362651825E-1
3.743344150E0,-1.605644226E0,-4.738941193E-1,-9.154156446E-1
3.748349033E0,-1.403380394E0,-1.820144653E-1,-9.023095369E-1
3.753384433E0,-1.061846733E0,1.671428680E-1,-7.442377806E-1
3.758389316E0,2.090454102E-2,4.134387970E-1,-5.377094746E-1
3.763394199E0,1.028641224E0,3.544769287E-1,-2.917149067E-1
3.768399081E0,1.209461689E0,-1.237983704E-1,-4.338836670E-2
3.773403964E0,1.626920700E-1,-4.623394012E-1,2.015146017E-1
3.778439365E0,3.258705139E-2,-7.058105469E-1,6.578934193E-2
3.783444247E0,5.768351555E-1,-3.077230453E-1,-1.892920732E-1
3.788449130E0,5.080556870E-1,8.151626587E-2,-5.657671690E-1
3.793454013E0,5.467200279E-1,-3.586292267E-2,-1.997196674E-1
3.798458896E0,7.027268410E-1,-5.193300247E-1,2.507781982E-1
3.803494296E0,4.465770721E-2,-1.229209900E0,4.567623138E-1
3.808499179E0,-9.878835678E-1,-1.870113373E0,4.349708557E-2
3.813504062E0,-4.445276260E-1,-1.819423676E0,-5.080153942E-1
3.818508945E0,-6.619548798E-2,-1.874369621E0,-2.296599150E-1
3.823513828E0,7.195806503E-2,-1.899469376E0,2.069520950E-2
3.828549228E0,4.918570518E-1,-1.582363129E0,-1.172627211E-1
3.833554111E0,9.621539116E-1,-1.330192566E0,-9.619736671E-2
3.838558994E0,1.174115181E0,-1.170676231E0,-7.669842243E-2
3.843563876E0,1.216374397E0,-9.691209793E-1,-5.710065365E-2
3.848568759E0,1.089443684E0,-8.558912277E-1,2.595938444E-1
3.853604160E0,1.281374931E0,-6.384315491E-1,7.332968712E-1
3.858609042E0,1.216948509E0,-2.082405090E-1,1.295529366E0
3.863613925E0,1.130680084E0,3.659763336E-1,1.760179281E0
3.868618808E0,1.368325710E0,8.969268799E-1,2.047351360E0
3.873623691E0,1.907590866E0,1.409682274E0,1.904413462E0
3.878659091E0,2.126470089E0,1.916922569E0,1.584148049E0
3.883663974E0,1.265557766E0,2.429168701E0,1.386968136E0
3.888668857E0,3.330960274E-1,2.698878288E0,1.187323093E0
3.893673740E0,-3.024206161E-1,2.671391487E0,8.846200705E-1
3.898678622E0,3.079905510E-1,2.897125244E0,1.386215687E-1
3.903714023E0,9.634685516E-1,2.958629608E0,-1.304436684E0
3.908718906E0,9.115080833E-1,2.648822784E0,-2.863057613E0
3.913723789E0,4.767823219E-1,2.844906807E0,-2.242378712E0
3.918728671E0,3.467187881E-1,3.386919022E0,-2.756829262E-1
3.923733554E0,1.096807003E0,3.522160530E0,1.651238918E0
3.928738437E0,1.308537483E0,3.483575821E0,3.735095501E0
3.933773837E0,6.784934998E-1,2.733464241E0,5.061564922E0
3.938778720E0,2.085623741E-1,1.460887909E0,5.036388397E0
3.943783603E0,1.187359810E0,6.131067276E-1,3.928911686E0
3.948788486E0,2.334061146E0,4.499673843E-2,2.739342213E0
3.953793369E0,2.415572166E0,-3.122997284E-1,1.640907288E0
3.958828769E0,2.068070412E0,-5.342392921E-1,5.949963331E-1
3.963833652E0,1.440039635E0,-8.391718864E-1,-4.128313065E-1
3.968838535E0,6.853017807E-1,-1.061367512E0,-1.236798406E0
3.973843417E0,-1.584033966E-1,-1.293695450E0,-1.560340643E0
3.978848300E0,-1.122837543E0,-1.503812790E0,-1.692355990E0
3.983883701E0,-1.878127575E0,-1.638051033E0,-1.215999365E0
3.988888583E0,-1.733781815E0,-1.592447281E0,-8.610938787E-1
3.993893466E0,-1.404299736E0,-1.314548016E0,-3.812391758E-1
3.998898349E0,-1.493000984E0,-9.866995811E-1,-6.222927570E-2
4.003903232E0,-2.361457825E0,-2.157711983E-1,8.691108227E-2
4.008938632E0,-3.109419823E0,7.293767929E-1,2.689766884E-1
4.013943515E0,-3.159522533E0,1.663153172E0,3.636388779E-1
4.018948398E0,-2.859485149E0,2.655751228E0,2.479918003E-1
4.023953281E0,-3.001019001E0,3.192486286E0,1.259624958E-2
4.028958164E0,-3.195395470E0,3.595180511E0,-2.524675131E-1
4.033993564E0,-2.920030117E0,4.163628101E0,-4.962629080E-1
4.038998447E0,-2.301450253E0,4.557240486E0,-7.692322731E-1
4.044003330E0,-1.641648293E0,4.662527561E0,-9.380518198E-1
4.049008212E0,-1.342392445E0,4.346901417E0,-6.890070438E-1
4.054013095E0,-1.292796135E0,3.538702965E0,-2.417932749E-1
4.059048496E0,-7.349228859E-1,2.546387672E0,2.864172459E-1
4.064053378E0,1.781201363E-1,1.598820210E0,6.167198420E-1
4.069058261E0,3.388881683E-1,8.777432442E-1,9.954172373E-1
4.074063144E0,-1.017241478E-1,6.687951088E-1,1.187077522E0
4.079068027E0,-3.254218102E-1,5.440788269E-1,8.683011532E-1
4.084103427E0,-6.060571671E-1,5.879445076E-1,3.347694874E-1
4.089108310E0,-1.714975834E0,5.741925240E-1,-4.778691530E-1
4.094113193E0,-2.048200130E0,4.436373711E-1,-1.467187643E0
4.099118076E0,-2.347010612E0,4.496049881E-1,-2.175231457E0
4.104122958E0,-2.222427368E0,5.186100006E-1,-2.443729401E0
4.109158359E0,-1.639664173E0,7.319602966E-1,-2.264439583E0
4.114163242E0,-6.463608742E-1,6.983146667E-1,-1.402438164E0
4.119168124E0,1.003078938E0,3.259696960E-1,-2.661476135E-1
4.124173007E0,2.053965092E0,-1.654930115E-1,1.097998619E0
4.129177890E0,2.148863792E0,-8.971748352E-1,2.399217606E0
4.134213290E0,1.956255436E0,-1.474090576E0,2.754830360E0
4.139218173E0,1.678285599E0,-1.845615387E0,2.578354836E0
4.144223056E0,1.136599064E0,-2.173956871E0,2.026413918E0
4.149227939E0,7.632789612E-1,-2.349693298E0,1.289534688E0
4.154232822E0,6.946115494E-1,-2.430291176E0,9.060854912E-1
4.159268222E0,1.142735004E0,-2.487544060E0,1.359207273E0
4.164273105E0,1.474633217E0,-2.755312920E0,8.820307255E-1
4.169277988E0,1.600315571E0,-2.478399277E0,-6.616255045E-1
4.174282871E0,4.488577843E-1,-1.654961586E0,-1.183316708E0
4.179287753E0,-4.299573898E-1,-1.644023895E0,-3.970441818E-1
4.184323154E0,-1.664619446E-1,-2.341000557E0,4.297226667E-1
4.189328037E0,2.035269737E-1,-2.428175926E0,5.959935188E-1
4.194332919E0,5.547027588E-1,-2.021494865E0,2.173056602E-1
4.199337802E0,4.845514297E-1,-1.728500366E0,-3.070394993E-1
4.204342685E0,2.530050278E-2,-1.509902000E0,-7.073124647E-1
4.209378085E0,-4.345974922E-1,-1.172719955E0,-1.014624238E0
4.214382968E0,-1.186352253E0,-4.729137421E-1,-6.859955788E-1
4.219387851E0,-5.540847778E-4,-1.186012268E0,-6.225520372E-1
4.224392734E0,1.206958294E0,-1.680283546E0,-1.414190888E0
4.229397617E0,1.854410172E-1,-1.340152740E0,-1.448583841E0
4.234433017E0,-4.741077423E-1,-1.029827118E0,-1.084208369E0
4.239437900E0,-2.577691078E-1,-9.172344208E-1,-9.125511646E-1
4.244442783E0,2.835898399E-1,-8.034582138E-1,-1.033133030E0
4.249447665E0,8.590350151E-1,-7.998895645E-1,-1.209925175E0
4.254452548E0,1.195496559E0,-8.249492645E-1,-1.061188102E0
4.259487949E0,1.461679459E0,-8.355493546E-1,-1.221358180E0
4.264462314E0,1.667445183E0,-8.127670288E-1,-1.475355387E0
4.269467197E0,1.296880245E0,-4.380397797E-1,-1.637812614E0
4.274502597E0,8.580570221E-1,-5.508804321E-2,-1.882865906E0
4.279507480E0,5.016946793E-1,2.592926025E-1,-2.089043140E0
4.284542880E0,1.626229286E-1,6.980514526E-1,-2.294294834E0
4.289517246E0,-1.888737679E-1,8.897657394E-1,-2.417560101E0
4.294552646E0,-4.345669746E-1,9.837074280E-1,-2.472582817E0
4.299557529E0,-6.353220940E-1,9.773902893E-1,-2.391478300E0
4.304562412E0,-2.998523712E-1,1.137683868E0,-2.273313522E0
4.309597812E0,7.604551315E-1,1.218364716E0,-1.880182743E0
4.314602695E0,2.504215240E0,-3.564939499E-1,-1.347316861E0
4.319607578E0,1.993990898E0,-1.450370789E0,-7.108111382E-1
4.324642978E0,1.905279160E-1,-1.115447044E0,-1.880941391E-1
4.329617343E0,6.049084663E-1,-1.221298218E0,-1.766781807E-1
4.334622226E0,1.655607224E0,-1.381357193E0,-3.274825811E-1
4.339657626E0,2.443512440E0,-1.596445084E0,-1.356244087E-2
4.344662509E0,3.019906521E0,-2.093457222E0,1.930109262E-1
4.349667392E0,3.403280735E0,-2.312550545E0,4.234082699E-1
4.354672275E0,3.418680668E0,-2.246883392E0,5.809921026E-1
4.359677158E0,3.207079887E0,-2.220557213E0,3.106142282E-1
4.364682040E0,2.980429173E0,-2.019102097E0,8.981704712E-2
4.369686923E0,2.807140350E0,-1.922799110E0,-8.142077923E-2
4.374722324E0,2.748249531E0,-1.703802109E0,-2.965458632E-1
4.379727206E0,2.324456692E0,-1.210255623E0,-3.538902998E-1
4.384762607E0,1.595716000E0,-4.192934036E-1,-3.376340866E-2
4.389767490E0,1.015933514E0,8.198232651E-1,1.338572025E0
4.394772372E0,9.511871338E-1,1.613191605E0,3.080923557E0
4.399777255E0,8.914594650E-1,1.977299690E0,3.830418110E0
4.404812656E0,8.773531914E-1,1.977802277E0,3.533785343E0
4.409787021E0,1.266095161E0,1.923379898E0,2.793612480E0
4.414822421E0,1.396536350E0,1.903091431E0,2.062385559E0
4.419827304E0,2.024369240E0,1.496963501E0,1.227475047E0
4.424862705E0,2.443982124E0,1.812398911E0,1.113679290E0
4.429837070E0,2.199028492E0,1.629657745E0,1.426178217E-1
4.434841953E0,9.837617874E-1,1.890908241E0,-1.031242609E-1
4.439877353E0,-1.119254589E0,2.995911598E0,2.641772032E-1
4.444882236E0,-1.786429405E0,3.236750603E0,5.340000391E-1
4.449917636E0,-1.703207493E0,2.795549393E0,6.822841167E-1
4.454922519E0,-1.138725758E0,2.373896599E0,6.062803268E-1
4.459896884E0,-8.349986076E-1,2.079105377E0,-6.070506573E-2
4.464932285E0,-1.161166191E0,1.745868683E0,-1.716688275E0
4.469937167E0,-1.767515182E0,1.237628937E0,-4.415872574E0
4.474942050E0,-3.252158165E0,9.551353455E-1,-6.380449295E0
4.479946933E0,-4.094694614E0,6.187486649E-1,-7.272117615E0
4.484951816E0,-4.102064610E0,6.985950470E-1,-6.860449314E0
4.489987216E0,-3.787026882E0,7.524967194E-1,-5.745002270E0
4.494992099E0,-2.716959953E0,4.363021851E-1,-4.755706310E0
4.499996982E0,-1.270450115E0,-7.617950439E-2,-3.758903742E0
4.505001865E0,-7.338666916E-1,-3.160457611E-1,-2.127282143E0
4.510006747E0,-8.538136482E-1,-4.517841339E-1,-7.281975746E-1
4.515042148E0,-1.631786823E0,-3.126401901E-1,5.017862320E-1
4.520047031E0,-2.296195030E0,-2.842569351E-1,1.444607615E0
4.525051914E0,-2.626347065E0,-4.500579834E-1,9.214156866E-1
4.530056796E0,-3.150296688E0,-2.483320236E-1,-3.392639160E-1
4.535061679E0,-3.906960964E0,-4.924201965E-2,-1.332846999E0
4.540097080E0,-4.179702759E0,2.237262726E-1,-2.030486107E0
4.545101962E0,-3.515105724E0,6.723403931E-1,-1.903459072E0
4.550106845E0,-2.496562004E0,1.225816727E0,-1.631905198E0
4.555111728E0,-1.281066895E0,1.766172409E0,-1.761415124E0
4.560116611E0,-1.764535904E-1,2.037646294E0,-1.121524096E0
4.565152011E0,1.206789017E0,1.784972191E0,-4.300708771E-1
4.570156894E0,1.724354744E0,1.745181084E0,2.648677826E-1
4.575161777E0,1.187341690E0,1.477958679E0,3.838102818E-1
4.580166660E0,1.088051796E0,1.177301407E0,3.032122850E-1
4.585171542E0,9.887256622E-1,7.251911163E-1,2.710304260E-1
4.590206943E0,9.865727425E-1,1.464118958E-1,9.666836262E-2
4.595211826E0,8.195204735E-1,-4.075956345E-1,9.210425615E-2
4.600216708E0,5.740113258E-1,-9.332456589E-1,1.423211694E-1
4.605221591E0,3.909063339E-1,-1.509147644E0,1.551553607E-1
4.610226474E0,4.527673721E-1,-1.909056664E0,-1.062303185E-1
4.615261874E0,4.846673012E-1,-2.126142502E0,-4.366582632E-1
4.620266757E0,7.546329498E-1,-1.865291595E0,-7.976348400E-1
4.625271640E0,1.263549805E0,-1.581274033E0,-7.336374521E-1
4.630276523E0,1.227693558E0,-1.486672401E0,-5.369753838E-1
4.635281406E0,1.082692146E0,-1.655185699E0,-5.259829760E-1
4.640316806E0,9.880475998E-1,-1.959355354E0,-6.769618988E-1
4.645321689E0,9.440903664E-1,-2.170201302E0,-5.751236677E-1
4.650326572E0,8.039078712E-1,-2.355575562E0,-3.736453056E-1
4.655331455E0,7.545270920E-1,-2.614418983E0,-3.252962828E-1
4.660336337E0,7.126483917E-1,-2.776586533E0,-3.968358636E-1
4.665371738E0,7.630453110E-1,-2.841056824E0,-5.166914463E-1
4.670376621E0,6.629757881E-1,-2.888186455E0,-7.772766948E-1
4.675381503E0,8.532590866E-1,-2.831800461E0,-8.860300779E-1
4.680386386E0,1.050811768E0,-2.803875923E0,-8.626651764E-1
4.685391269E0,8.501753807E-1,-2.758334160E0,-9.435650110E-1
4.690426669E0,6.768221855E-1,-2.700153351E0,-1.137551546E0
4.695431552E0,5.125155449E-1,-2.518518448E0,-1.069208860E0
4.700436435E0,5.849270821E-1,-2.474444389E0,-9.977945089E-1
4.705441318E0,5.419521332E-1,-2.147973061E0,-1.145954847E0
4.710446201E0,-1.764769554E-1,-1.583378792E0,-1.295100570E0
4.715481601E0,-1.211720943E0,-9.741840363E-1,-1.237322092E0
4.720486484E0,-1.914363384E0,-5.797042847E-1,-1.189892054E0
4.725491367E0,-2.140109062E0,-1.294164658E-1,-1.422508478E0
4.730496249E0,-2.228775501E0,4.189052582E-1,-1.790931702E0
4.735501132E0,-2.234642506E0,9.398183823E-1,-2.035034657E0
4.740536533E0,-1.824118137E0,1.330525398E0,-1.985717297E0
4.745541415E0,-1.219706059E0,1.622651100E0,-1.945084333E0
4.750546298E0,-8.077402115E-1,1.735486031E0,-1.814234734E0
4.755551181E0,-3.594102859E-1,1.784361839E0,-1.469954252E0
4.760556064E0,1.137990952E-1,1.807819366E0,-1.011843920E0
4.765591464E0,2.357854843E-1,1.557421684E0,-5.994873643E-1
4.770596347E0,1.007590294E-1,9.202022552E-1,-5.396832228E-1
4.775601230E0,-6.400475502E-1,2.105760574E-1,-5.992763042E-1
4.780606113E0,-1.015334606E0,-2.971706390E-1,-8.189784288E-1
4.785610996E0,-1.033413887E0,-5.855169296E-1,-6.357141733E-1
4.790646396E0,-9.435267448E-1,-4.723329544E-1,-2.302029729E-1
4.795651279E0,-8.504562378E-1,-2.723693848E-1,-9.215015173E-2
4.800656162E0,-5.440821648E-1,-2.450227737E-1,-4.028336406E-1
4.805661044E0,-6.493897438E-1,-3.139657974E-1,-9.687964916E-1
4.810665927E0,-6.167964935E-1,-3.321981430E-1,-1.996310592E0
4.815670810E0,-6.288962364E-1,-3.539810181E-1,-2.498405695E0
4.820706210E0,-9.389677048E-1,-3.518648148E-1,-2.328724384E0
4.825711093E0,-1.184707165E0,-5.301122665E-1,-2.065065384E0
4.830715976E0,-1.441235542E0,-5.897417068E-1,-1.653470039E0
4.835720859E0,-1.867140770E0,-4.600410461E-1,-1.811737299E0
4.840725742E0,-2.000719070E0,-3.742990494E-1,-2.230399609E0
4.845761142E0,-1.890050411E0,-1.212835312E-1,-1.679073334E0
4.850766025E0,-1.223058701E0,2.005386353E-2,-8.675739169E-1
4.855770908E0,-7.576971054E-1,3.129873276E-1,-4.694052935E-1
4.860775790E0,-8.783984184E-1,4.905414581E-1,-2.545804977E-1
4.865780673E0,-8.760881424E-1,3.649864197E-1,1.654762030E-2
4.870816074E0,-2.813692093E-1,1.204671860E-1,-4.226088524E-3
4.875820956E0,2.488088608E-1,1.371593475E-1,-2.657753825E-1
4.880825839E0,3.113331795E-1,3.161621094E-1,-4.639162421E-1
4.885830722E0,-1.688933372E-1,3.626594543E-1,-5.401041508E-1
4.890835605E0,-9.333796501E-1,2.405815125E-1,-9.147165418E-1
4.895871005E0,-1.481404781E0,1.525268555E-1,-1.254936934E0
4.900875888E0,-3.001593590E0,-6.609039307E-1,-1.110297441E0
4.905880771E0,-2.313124180E0,-1.268140793E0,-2.120820284E0
4.910885654E0,-1.096783638E0,-5.248670578E-1,-2.787870646E0
4.915890537E0,-2.520265579E-1,-2.011814117E-1,-2.587442160E0
4.920925937E0,5.701665878E-1,-2.638359070E-1,-1.523802757E0
4.925930820E0,5.331835747E-1,-3.137483597E-1,-1.620841742E0
4.930935703E0,8.741521835E-2,-6.192483902E-1,-1.052356005E0
4.935940585E0,-6.712789536E-1,-6.904573441E-1,-5.373470783E-1
4.940945468E0,-1.375698090E0,-4.091615677E-1,-9.475791454E-1
4.945980869E0,-1.585878849E0,1.189241409E-1,-1.713479519E0
4.950985751E0,-8.654813766E-1,6.403532028E-1,-2.081699371E0
4.955990634E0,7.534074783E-2,1.346365929E0,-2.290158987E0
4.960995517E0,9.293174744E-1,2.069048882E0,-2.598893642E0
4.966000400E0,1.504936695E0,2.339203835E0,-2.730579853E0
4.971035800E0,1.386542797E0,2.254894257E0,-2.555371284E0
4.976040683E0,2.993388176E-1,2.534984589E0,-2.670953989E0
4.981045566E0,-6.577959061E-1,2.608126640E0,-2.583085060E0
4.986050449E0,-1.026347160E0,1.937319756E0,-3.345349312E0
4.991055331E0,-1.356580734E0,1.087052345E0,-3.227203608E0
4.996090732E0,-1.015101910E0,-4.694614410E-1,-2.490169048E0
5.001095615E0,-2.084511757E0,-9.676284790E-1,-2.016573429E0
5.006100497E0,-2.907092094E0,-5.830736160E-1,-1.185696840E0
5.011105380E0,-2.065863132E0,-9.868240356E-1,-1.161083221E0
5.016110263E0,-2.337780476E0,-4.043054581E-1,-1.605890274E0
5.021145664E0,-1.400698185E0,-1.705303192E-1,-1.742646098E0
5.026150546E0,-1.043325901E0,2.903461456E-1,-1.911056876E0
5.031155429E0,-4.247889519E-1,3.404483795E-1,-1.757718086E0
5.036160312E0,4.983410835E-1,7.678413391E-2,-1.590134501E0
5.041165195E0,8.681983948E-1,3.158435822E-1,-1.294992208E0
5.046200595E0,6.690411568E-1,1.166636467E0,-1.190805912E0
5.051205478E0,3.903832436E-1,1.376364708E0,-1.324232221E0
5.056210361E0,7.294101715E-1,1.754777908E0,-3.122473955E-1
5.061215244E0,1.479371548E0,2.047295570E0,4.793691635E-1
5.066220126E0,2.602816105E0,2.313616753E0,1.066435695E0
5.071255527E0,2.778960228E0,3.055846214E0,1.832617760E0
5.076260410E0,3.544979095E0,3.466987610E0,2.147742510E0
5.081265292E0,4.111925602E0,4.309870720E0,2.802188873E0
5.086270175E0,4.596667290E0,4.924715042E0,3.111069441E0
5.091275058E0,4.685785294E0,5.387786865E0,3.331352711E0
5.096310458E0,4.742778301E0,5.228955269E0,3.487877846E0
5.101315341E0,4.520967007E0,4.880803108E0,3.802709579E0
5.106320224E0,4.062606812E0,4.122271538E0,4.039450169E0
5.111325107E0,2.527427673E0,3.040516853E0,4.423559189E0
5.116329990E0,1.524975777E0,2.074929237E0,4.578559399E0
5.121365390E0,2.582189083E0,2.297773361E0,4.081614494E0
5.126370273E0,4.505085945E0,1.557415009E0,2.701992035E0
5.131375156E0,5.866682529E0,1.103254318E0,1.238579512E0
5.136380039E0,6.418225288E0,1.299425125E0,6.612927914E-1
5.141384921E0,6.674620628E0,1.020411491E0,1.754438877E-2
5.146420322E0,6.721132755E0,1.373085976E0,-7.784366608E-2
5.151425205E0,6.098264694E0,1.045902252E0,1.156243086E-1
5.156430087E0,4.532119274E0,6.150722504E-2,1.598364353E0
5.161434970E0,3.886369944E0,-8.831110001E-1,2.747952700E0
5.166439853E0,2.909330845E0,-1.366594315E0,3.081527710E0
5.171475253E0,1.932126045E0,-1.344684601E0,3.184634209E0
5.176480136E0,5.734875202E-1,-1.865230560E0,3.681264639E0
5.181485019E0,-4.345741272E-1,-2.149510384E0,5.081818581E0
5.186489902E0,-1.870517731E-1,-1.848996162E0,5.431731701E0
5.191494785E0,-1.054241657E-1,-1.243813515E0,5.090772629E0
5.196530185E0,-6.558108330E-2,-1.447128296E0,4.204383373E0
5.201535068E0,-2.175772190E-1,-1.014726639E0,4.409250259E0
5.206539951E0,6.752297878E-1,9.830522537E-1,5.386875629E0
5.211544833E0,2.724298954E0,3.115233421E0,3.187546015E0
5.216549716E0,4.425017357E0,5.343992233E0,1.005808860E-1
5.221554599E0,4.353413582E0,5.908370972E0,1.756197095E0
5.226559482E0,2.519713879E0,4.509237289E0,4.705864429E0
5.231564365E0,-1.054585695E0,2.560256958E0,6.316082954E0
5.236569247E0,-2.312798262E0,7.705831528E-1,6.209751606E0
5.241574130E0,-2.431200981E0,-1.708730698E0,4.687006950E0
5.246609531E0,-3.388251781E0,-2.724919319E0,3.608495474E0
5.251614414E0,-3.767385960E0,-3.512028694E0,3.216232777E0
5.256619296E0,-3.410739422E0,-4.284204483E0,2.769299746E0
5.261624179E0,-2.688069582E0,-4.890388489E0,2.158962250E0
5.266659580E0,-2.077343464E0,-5.441552162E0,1.828816652E0
5.271694980E0,-1.290218353E0,-5.859343529E0,1.526039958E0
5.276699863E0,-5.518548489E-1,-6.236323357E0,1.244060874E0
5.281704746E0,-1.857330799E-1,-6.468622208E0,9.867252707E-1
5.286709628E0,-2.395102978E-1,-6.380417824E0,7.369995713E-1
5.291714511E0,-4.237279892E-1,-5.518223763E0,7.924602628E-1
5.296719394E0,-3.429749012E-1,-4.367616653E0,9.046915770E-1
5.301724277E0,1.962153912E-1,-3.297212601E0,8.956228495E-1
5.306759677E0,7.261595726E-1,-2.451040268E0,6.663575172E-1
5.311764560E0,9.262986183E-1,-1.848394394E0,5.719758868E-1
5.316769443E0,1.469619036E0,-1.136520386E0,2.039232850E-1
5.321774326E0,1.571697474E0,-5.284748077E-1,-4.660641551E-1
5.326809726E0,1.583497763E0,-8.267879486E-2,-8.184322119E-1
5.331814609E0,1.543321133E0,3.958930969E-1,-1.148452282E0
5.336819492E0,1.154335976E0,8.081378937E-1,-1.532296419E0
5.341824374E0,5.751893520E-1,9.504632950E-1,-1.628513813E0
5.346829257E0,5.303835869E-2,7.544889450E-1,-1.700927496E0
5.351864658E0,-1.707944870E-1,7.352714539E-1,-1.318099260E0
5.356869540E0,-4.087901115E-1,9.701576233E-1,-1.296282411E0
5.361874423E0,-7.156937122E-1,1.159034729E0,-1.900074124E0
5.366879306E0,-5.356447697E-1,1.050580025E0,-1.650862932E0
5.371884189E0,3.363752365E-2,7.707233429E-1,-1.441483140E0
5.376919589E0,8.621635437E-1,3.073015213E-1,-1.081465602E0
5.381924472E0,1.750262976E0,-8.796119690E-2,1.652737856E-1
5.386929355E0,2.013409138E0,-5.191822052E-1,1.574985385E0
5.391934238E0,1.826931477E0,-9.414730072E-1,2.863470554E0
5.396939121E0,1.506735563E0,-1.336896896E0,4.681839943E0
5.401974521E0,1.319323301E0,-1.358749390E0,5.787641048E0
5.406979404E0,1.132755280E0,-1.115118980E0,5.752119541E0
5.411984287E0,1.021332741E0,-6.366968155E-1,5.516050339E0
5.416989169E0,9.478695393E-1,1.335334778E-2,5.326416016E0
5.421994052E0,7.631325722E-1,6.941051483E-1,4.736838341E0
5.427029453E0,3.858079910E-1,1.638113976E0,3.542675257E0
5.432034335E0,2.588558197E-2,2.719395638E0,2.746969223E0
5.437039218E0,-6.062822342E-1,3.939391136E0,2.337854385E0
5.442044101E0,-1.800929785E0,5.007135391E0,1.821565986E0
5.447048984E0,-3.015512466E0,5.579000473E0,1.067601323E0
5.452084384E0,-3.389281511E0,4.880740166E0,2.072049379E-1
5.457089267E0,-3.242389441E0,3.808325768E0,-5.865404606E-1
5.462094150E0,-2.671268225E0,2.848827362E0,-9.689821005E-1
5.467099033E0,-1.906101942E0,1.735181808E0,-5.868718624E-1
5.472103915E0,-5.983278751E-1,1.888847351E-1,-5.594336987E-2
5.477139316E0,1.090022564E0,-5.648288727E-1,7.162048817E-1
5.482144199E0,2.239185810E0,-1.031604767E0,1.320945144E0
5.487149081E0,2.959107399E0,-1.975038528E0,8.406983614E-1
5.492153964E0,4.073220730E0,-3.303578377E0,-6.605165005E-1
5.497158847E0,4.574501991E0,-3.934171677E0,-9.304399490E-1
5.502194247E0,5.050587177E0,-4.117689133E0,-8.180189133E-1
5.507199130E0,3.933008671E0,-4.761991501E0,-7.524160147E-1
5.512204013E0,3.711392164E0,-5.427443504E0,-5.690109730E-2
5.517208896E0,4.288573265E0,-5.943377495E0,7.155156136E-1
5.522213779E0,4.686212063E0,-6.357214928E0,1.132449985E0
5.527249179E0,5.587217331E0,-6.047922134E0,1.566231251E0
5.532254062E0,5.900565147E0,-5.371999741E0,1.666768551E0
5.537258945E0,5.967141151E0,-4.632636070E0,1.142142892E0
5.542263828E0,5.985220432E0,-3.906414032E0,4.632457495E-1
5.547268710E0,6.161573887E0,-3.321134567E0,-5.296266079E-2
5.552304111E0,6.235350132E0,-2.742826462E0,-3.571557999E-2
5.557308994E0,5.748231888E0,-2.095149040E0,3.661807775E-1
5.562313876E0,5.117828846E0,-1.580429077E0,8.075225353E-1
5.567318759E0,4.793692112E0,-1.405464172E0,1.237353206E0
5.572323642E0,4.392992496E0,-1.291371346E0,1.234821200E0
5.577359042E0,4.086794853E0,-1.288336754E0,1.361723304E0
5.582363925E0,3.617928505E0,-1.436922073E0,1.384389281E0
5.587368808E0,3.100201607E0,-1.724957466E0,1.545367837E0
5.592408689E0,2.790708303E0,-1.977728844E0,1.752706409E0
5.597413572E0,2.574561834E0,-2.122380257E0,1.950432777E0
5.602448972E0,2.306197643E0,-2.173484802E0,2.013459206E0
5.607453855E0,1.887644410E0,-1.990251541E0,1.947329283E0
5.612458738E0,1.370487809E0,-1.766678810E0,1.668632150E0
5.617463620E0,8.866730928E-1,-1.436939240E0,1.531559706E0
5.622468503E0,5.137785673E-1,-9.450273514E-1,1.570071697E0
5.627503904E0,3.679594994E-1,-3.510208130E-1,1.523142815E0
5.632508787E0,4.769864082E-1,9.616088867E-2,1.391266942E0
5.637513669E0,7.285350561E-1,5.162143707E-1,1.441475868E0
5.642518552E0,1.106624842E0,7.129049301E-1,1.501228809E0
5.647523435E0,1.344241142E0,7.390050888E-1,1.619019032E0
5.652558835E0,1.389577031E0,5.517082214E-1,1.684625626E0
5.657563718E0,1.630335093E0,1.323509216E-1,1.648294210E0
5.662568601E0,1.874572992E0,-3.427248001E-1,1.549413204E0
5.667573484E0,1.910895348E0,-8.263483047E-1,1.064685106E0
5.672578367E0,1.911103368E0,-1.357275009E0,4.598488808E-1
5.677613767E0,1.952815294E0,-1.780603409E0,1.708306968E-1
5.682618650E0,2.082411289E0,-2.206128120E0,-1.727208793E-1
5.687623533E0,2.312119246E0,-2.644453049E0,-4.504171014E-1
5.692628415E0,2.320188999E0,-3.039284706E0,-5.784806013E-1
5.697633298E0,2.300522566E0,-3.526968956E0,-7.259435058E-1
5.702668699E0,1.988439679E0,-3.851473808E0,-8.591483831E-1
5.707673581E0,1.579470873E0,-4.126680374E0,-9.608796239E-1
5.712678464E0,1.109922171E0,-4.227067947E0,-1.206213713E0
5.717683347E0,5.380792618E-1,-4.173158646E0,-1.349032164E0
5.722688230E0,2.018392086E-1,-4.115667343E0,-1.380098939E0
5.727723630E0,7.181644440E-2,-3.882304192E0,-1.548732996E0
5.732728513E0,1.385509968E-1,-3.497656822E0,-1.740989566E0
5.737733396E0,2.175467014E-1,-3.097067833E0,-1.918094993E0
5.742738279E0,2.815008163E-1,-2.782307625E0,-1.889301777E0
5.747743162E0,5.676259995E-1,-2.540281296E0,-1.703939676E0
5.752748044E0,5.730476379E-1,-1.992061615E0,-1.473653316E0
5.757783445E0,5.484840870E-1,-1.312361717E0,-1.263958931E0
5.762788328E0,1.026125431E0,-8.257913589E-1,-8.481109142E-1
5.767793210E0,1.380086660E0,-4.459295273E-1,-3.713828325E-2
5.772798093E0,1.451684713E0,-2.556514740E-2,7.408215404E-1
5.777833494E0,1.665153980E0,5.120229721E-1,1.945474148E0
5.782838376E0,2.188245058E0,1.154936790E0,3.318587780E0
5.787843259E0,1.768274307E0,1.737653732E0,3.880010605E0
5.792848142E0,7.733008862E-1,2.124879837E0,4.215991020E0
5.797853025E0,2.842235565E-1,2.277448654E0,4.610145092E0
5.802857908E0,-5.554699898E-2,2.532563210E0,4.836035728E0
5.807893308E0,-5.212388039E-1,2.837352753E0,4.933524609E0
5.812898191E0,-6.459164619E-1,2.821496964E0,4.909452915E0
5.817903074E0,-7.212529182E-1,2.779239655E0,4.838551044E0
5.822907956E0,-9.624519348E-1,2.832028389E0,4.800459862E0
5.827912839E0,-1.229928017E0,2.910043716E0,4.822428703E0
5.832948240E0,-1.565890789E0,2.936980247E0,4.688916683E0
5.837953122E0,-2.023181438E0,2.997433662E0,4.602984905E0
5.842958005E0,-2.352900028E0,3.107469559E0,4.569112778E0
5.847962888E0,-2.506979942E0,3.182535172E0,4.425756931E0
5.852967771E0,-2.639100552E0,3.352076530E0,4.108592987E0
5.858003171E0,-2.575593472E0,3.447809219E0,3.930685520E0
5.863008054E0,-2.575824261E0,3.464898109E0,3.756445885E0
5.868012937E0,-2.513854980E0,3.358443260E0,3.539453030E0
5.873017820E0,-2.147526741E0,3.200513840E0,3.220101118E0
5.878022703E0,-1.845473766E0,3.156078339E0,2.766374350E0
5.883058103E0,-1.467793465E0,3.257210732E0,2.274819613E0
5.888062986E0,-1.246592045E0,3.287727356E0,1.754126787E0
5.893067869E0,-1.147276402E0,3.183152199E0,1.311868072E0
5.898072751E0,-9.127826691E-1,3.186309814E0,9.500355124E-1
5.903077634E0,-6.277394295E-1,3.250094414E0,6.031353474E-1
5.908113035E0,-2.179150581E-1,3.448394775E0,2.577829063E-1
5.913117917E0,-1.773834229E-3,3.300927162E0,1.063298434E-2
5.918122800E0,6.188249588E-2,3.069749832E0,-2.371238768E-1
5.923127683E0,-6.630849838E-2,2.733491898E0,-4.994962811E-1
5.928132566E0,-2.086377144E-1,2.397867203E0,-6.286827326E-1
5.933167966E0,-3.106508255E-1,2.033364296E0,-7.544451356E-1
5.938172849E0,-4.189090729E-1,1.700947762E0,-7.412356734E-1
5.943177732E0,-6.138477325E-1,1.362593651E0,-8.260750771E-1
5.948182615E0,-8.213849068E-1,1.118913651E0,-8.653562665E-1
5.953187497E0,-1.199103832E0,8.227214813E-1,-8.843632340E-1
5.958222898E0,-1.437085152E0,5.741834641E-1,-9.088299870E-1
5.963227781E0,-1.303154945E0,4.980573654E-1,-9.564253092E-1
5.968232663E0,-1.232865810E0,4.146680832E-1,-1.108219862E0
5.973237546E0,-1.038809299E0,4.197511673E-1,-1.155161500E0
5.978242429E0,-9.516110420E-1,5.115814209E-1,-1.160408735E0
5.983277829E0,-1.075079918E0,4.362983704E-1,-1.308769941E0
5.988252195E0,-1.127177715E0,4.476137161E-1,-1.510115385E0
5.993257078E0,-1.145367622E0,4.115438461E-1,-1.768936157E0
5.998292478E0,-9.880299568E-1,2.721776962E-1,-2.063774109E0
6.003327878E0,-7.236518860E-1,1.456680298E-1,-2.251805067E0
6.008332761E0,-5.343995094E-1,3.219413757E-2,-2.337322235E0
6.013337644E0,-3.025369644E-1,-2.411012650E-1,-2.391674757E0
6.018312009E0,1.999192238E-1,-3.867444992E-1,-2.423763037E0
6.023316892E0,6.107869148E-1,-5.675849915E-1,-2.343424797E0
6.028352292E0,9.125571251E-1,-7.811660767E-1,-2.080236673E0
6.033387693E0,1.087800980E0,-1.000026703E0,-1.731428623E0
6.038392576E0,1.168605804E0,-1.186711311E0,-1.258775473E0
6.043397458E0,1.220642567E0,-1.269335747E0,-8.002517819E-1
6.048402341E0,1.354116440E0,-1.262429237E0,-3.643940389E-1
6.053407224E0,1.164446831E0,-1.200011253E0,-1.247179508E-1
6.058412107E0,1.126507282E0,-1.135845184E0,2.882037461E-1
6.063447507E0,1.056232929E0,-1.038996696E0,5.696256757E-1
6.068452390E0,9.136061668E-1,-8.094921112E-1,6.321222186E-1
6.073457273E0,8.868012428E-1,-6.247129440E-1,8.081684113E-1
6.078462156E0,7.493362427E-1,-3.930797577E-1,8.896046281E-1
6.083497556E0,5.724449158E-1,-1.784076691E-1,8.533511162E-1
6.088502439E0,3.026556969E-1,-9.210205078E-2,8.117742538E-1
6.093507322E0,9.538030624E-2,-7.174491882E-2,7.043113708E-1
6.098512204E0,-1.229062080E-1,-9.302997589E-2,5.386154652E-1
6.103547605E0,-2.868399620E-1,-1.771106720E-1,3.405732512E-1
6.108552488E0,-3.622817993E-1,-3.224191666E-1,2.322549224E-1
6.113557370E0,-4.785690308E-1,-3.912820816E-1,1.584215164E-1
6.118562253E0,-5.880289078E-1,-4.458169937E-1,1.825516820E-1
6.123567136E0,-6.598539352E-1,-5.205869675E-1,2.057037950E-1
6.128572019E0,-8.066916466E-1,-6.023006439E-1,1.491883397E-1
6.133607419E0,-9.398913383E-1,-8.128795624E-1,9.647327662E-2
6.138612302E0,-1.077627659E0,-1.147240639E0,1.503169537E-1
6.143617185E0,-1.310362816E0,-1.628014565E0,8.463656902E-2
6.148652585E0,-1.542342663E0,-2.085079193E0,5.133986473E-3
6.153626951E0,-1.650900364E0,-2.427335739E0,-1.186625957E-1
6.158631833E0,-1.583786964E0,-2.587641716E0,-2.723094225E-1
6.163667234E0,-1.428450108E0,-2.548269272E0,-3.456094265E-1
6.168672117E0,-1.157273293E0,-2.468613625E0,-3.610233068E-1
6.173676999E0,-8.551812172E-1,-2.386978149E0,-3.856751919E-1
6.178681882E0,-6.524910927E-1,-2.325055122E0,-4.815044403E-1
6.183717283E0,-3.507690430E-1,-2.138181686E0,-5.436245203E-1
6.188722165E0,-5.888605118E-2,-1.870993614E0,-6.722490788E-1
6.193727048E0,1.576547623E-1,-1.630031586E0,-8.298350573E-1
6.198762449E0,3.239202499E-1,-1.412655830E0,-1.028773427E0
6.203736814E0,4.956369400E-1,-1.216387749E0,-1.217703342E0
6.208772214E0,6.828284264E-1,-1.018382072E0,-1.400540709E0
6.213777097E0,7.692813873E-1,-8.450908661E-1,-1.504261494E0
6.218781980E0,7.781929970E-1,-6.463232040E-1,-1.530905008E0
6.223786863E0,7.600131035E-1,-5.547189713E-1,-1.479942560E0
6.228822263E0,7.759690285E-1,-4.061851501E-1,-1.481598616E0
6.233827146E0,7.700395584E-1,-2.644548416E-1,-1.539688349E0
6.238832029E0,7.255902290E-1,-1.891002655E-1,-1.536530256E0
6.243836912E0,7.171254158E-1,-1.548337936E-1,-1.519547939E0
6.248841794E0,6.686792374E-1,-1.566476822E-1,-1.612229109E0
6.253846677E0,5.628948212E-1,-3.006420135E-1,-1.683008432E0
6.258882078E0,5.328693390E-1,-3.914623260E-1,-1.711241484E0
6.263886960E0,5.281677246E-1,-4.593763351E-1,-1.788290977E0
6.268891843E0,4.221415520E-1,-5.151777267E-1,-1.806109905E0
6.273927244E0,1.823372841E-1,-6.493768692E-1,-1.897465944E0
6.278901609E0,1.888608932E-2,-8.020515442E-1,-1.956455469E0
6.283906492E0,-5.915641785E-2,-1.029788971E0,-2.002284527E0
6.288911374E0,1.772546768E-2,-1.206873894E0,-1.952292442E0
6.293946775E0,1.144142151E-1,-1.223222256E0,-1.917023659E0
6.298951658E0,2.251043320E-1,-1.209829807E0,-1.844020605E0
6.303956540E0,3.622851372E-1,-1.093479156E0,-1.836232185E0
6.308961423E0,5.216879845E-1,-9.770717621E-1,-1.876152515E0
6.313966306E0,5.507879257E-1,-1.019513607E0,-1.896108627E0
6.318971189E0,7.250685692E-1,-1.010051250E0,-1.721833229E0
6.323976072E0,9.766106606E-1,-1.013692856E0,-1.458040714E0
6.328980954E0,1.025773048E0,-1.107358932E0,-1.142200470E0
6.333985837E0,1.117593765E0,-1.202622414E0,-9.217891693E-1
6.338990720E0,1.181426525E0,-1.275825977E0,-6.561169624E-1
6.344026120E0,1.144641876E0,-1.459829330E0,2.304458618E-2
6.349031003E0,1.115290165E0,-1.489395142E0,6.127939224E-1
6.354035886E0,1.172799826E0,-1.321443558E0,1.201128006E0
6.359040769E0,8.960006237E-1,-1.226303577E0,1.708110332E0
6.364076169E0,7.165431976E-1,-1.109658718E0,1.916669846E0
6.369081052E0,5.731580257E-1,-8.860702515E-1,1.972484112E0
6.374116453E0,2.730813026E-1,-7.294077873E-1,1.944003582E0
6.379121335E0,1.321310997E-1,-6.350483894E-1,1.856215477E0
6.384126218E0,-1.620428562E-1,-6.276011467E-1,1.676088333E0
6.389161619E0,-4.488286972E-1,-6.393060684E-1,1.375031948E0
6.394166501E0,-6.336708069E-1,-6.543531418E-1,1.182970524E0
6.399201902E0,-8.693504333E-1,-6.408109665E-1,1.079174995E0
6.404176267E0,-9.540166855E-1,-6.004934311E-1,9.311461449E-1
6.409181150E0,-9.917356968E-1,-4.779930115E-1,8.713755608E-1
6.414216550E0,-1.107096672E0,-3.543725014E-1,7.654595375E-1
6.419221433E0,-1.123982668E0,-2.812113762E-1,7.264747620E-1
6.424226316E0,-1.068535328E0,-2.177772522E-1,6.022233963E-1
6.429231199E0,-9.816641808E-1,-1.127347946E-1,4.515032768E-1
6.434266599E0,-9.554836750E-1,3.508281708E-2,2.288155556E-1
6.439271482E0,-9.513177872E-1,1.869726181E-1,-6.146097183E-2
6.444276365E0,-8.899903297E-1,2.958416939E-1,-2.839474678E-1
6.449281247E0,-7.747781277E-1,3.693671227E-1,-3.820438385E-1
6.454286130E0,-7.385728359E-1,4.568634033E-1,-4.344696999E-1
6.459291013E0,-6.253218651E-1,5.989384651E-1,-4.892702103E-1
6.464326413E0,-4.186325073E-1,7.885136604E-1,-4.453597069E-1
6.469331296E0,-2.297084332E-1,9.844651222E-1,-3.227386475E-1
6.474336179E0,-4.035019875E-2,1.189353943E0,-1.915450096E-1
6.479341062E0,1.528196335E-1,1.385138988E0,-4.243326187E-2
6.484345945E0,1.007466316E-1,1.435315132E0,1.497764587E-1
6.489350828E0,-3.140091896E-2,1.342568398E0,2.870836258E-1
6.494386228E0,-1.364507675E-1,1.179207802E0,4.699902534E-1
6.499391111E0,-2.212498188E-1,1.046203136E0,5.529208183E-1
6.504395994E0,-3.057227135E-1,9.565477371E-1,5.304145813E-1
6.509400876E0,-2.390162945E-1,8.899664879E-1,4.542598724E-1
6.514405759E0,-9.255647659E-2,7.520060539E-1,2.912163734E-1
6.519441160E0,-1.007580757E-1,5.859150887E-1,4.838943481E-2
6.524446042E0,-7.970333099E-2,4.703898430E-1,-1.707034111E-1
6.529450925E0,1.315294504E-1,3.475055695E-1,-2.423071861E-1
6.534455808E0,2.438180447E-1,2.040448189E-1,-3.485145569E-1
6.539460691E0,3.791373968E-1,6.676673889E-2,-3.868417740E-1
6.544465574E0,6.542614698E-1,-7.336664200E-2,-2.573237419E-1
6.549500974E0,9.540643692E-1,-1.896295547E-1,-2.292394638E-2
6.554505857E0,1.307368517E0,-2.634549141E-1,2.018179893E-1
6.559510740E0,1.849101305E0,-2.193784714E-1,3.747410774E-1
6.564546140E0,2.330220222E0,-1.373119354E-1,6.305708885E-1
6.569551023E0,2.778498173E0,6.804847717E-2,9.494953156E-1
6.574555906E0,3.217872620E0,2.829179764E-1,1.160359383E0
6.579591306E0,3.470250607E0,4.390492439E-1,1.473887920E0
6.584596189E0,3.619380951E0,5.543107986E-1,1.643630028E0
6.589601072E0,3.565600872E0,6.379990578E-1,1.861413002E0
6.594605954E0,3.392710209E0,6.035995483E-1,1.792830467E0
6.599610837E0,3.267852306E0,4.354743958E-1,1.666866302E0
6.604615720E0,3.151010275E0,2.038640976E-1,1.470781326E0
6.609620603E0,2.908508778E0,-5.258989334E-2,8.908700943E-1
6.614656003E0,2.581509590E0,-2.340812683E-1,1.483564377E-1
6.619660886E0,2.244008780E0,-3.945651054E-1,-6.059675217E-1
6.624665769E0,2.024448156E0,-3.933224678E-1,-1.124200821E0
6.629670652E0,1.837174177E0,-3.967299461E-1,-1.467793465E0
6.634675535E0,1.641646981E0,-3.214879036E-1,-1.665648460E0
6.639710935E0,1.183621764E0,-2.445693016E-1,-1.544546127E0
6.644715818E0,6.525344849E-1,-2.349767685E-1,-1.580428123E0
6.649720701E0,1.737195253E-1,-1.954326630E-1,-1.792550087E0
6.654725583E0,-4.822272062E-2,-5.750465393E-2,-1.916799545E0
6.659730466E0,-5.461915135E-1,-7.370615005E-2,-1.808617592E0
6.664765867E0,-7.871207595E-1,-5.991697311E-2,-1.838933945E0
6.669770749E0,-9.338523746E-1,-2.902412415E-2,-1.910977364E0
6.674775632E0,-1.127654076E0,-1.022825241E-1,-1.992974281E0
6.679780515E0,-1.208858490E0,-2.049846649E-1,-2.045726776E0
6.684785398E0,-1.166208029E0,-3.621635437E-1,-1.746466637E0
6.689820798E0,-9.937707782E-1,-3.962788582E-1,-1.527983665E0
6.694825681E0,-1.029216051E0,-5.070085526E-1,-1.439762115E0
6.699830564E0,-1.142391562E0,-6.465721130E-1,-1.579993248E0
6.704835447E0,-1.340488195E0,-7.778038979E-1,-1.653123856E0
6.709840329E0,-1.562807798E0,-8.050212860E-1,-1.398337364E0
6.714845212E0,-1.731953144E0,-8.812022209E-1,-9.299039841E-1
6.719880613E0,-1.783602953E0,-9.345679283E-1,-5.506420135E-1
6.724885495E0,-1.988616705E0,-1.112621784E0,-1.756191254E-2
6.729890378E0,-1.925602317E0,-1.066739559E0,1.061589241E0
6.734895261E0,-1.858762503E0,-9.177193642E-1,1.573361397E0
6.739900144E0,-1.873242378E0,-1.102263927E0,2.366224289E0
6.744935544E0,-2.131644726E0,-1.500015736E0,3.780651093E0
6.749940427E0,-2.350341082E0,-1.758224487E0,4.609968185E0
6.754945310E0,-2.665260315E0,-1.993849754E0,5.494844437E0
6.759950193E0,-2.870928764E0,-2.357747078E0,6.393508911E0
6.764955076E0,-2.694414377E0,-2.479438305E0,5.523042679E0
6.769990476E0,-2.819125175E0,-2.985991955E0,5.241785049E0
6.774995359E0,-2.673038006E0,-3.086473942E0,4.572073936E0
6.780000242E0,-2.242139816E0,-2.651161671E0,4.031410217E0
6.785005124E0,-1.639371991E0,-2.046522141E0,3.122548103E0
6.790010007E0,-8.109788895E-1,-1.363213062E0,1.929541588E0
6.795045408E0,3.513939977E-1,-4.482355118E-1,9.938602448E-1
6.800050290E0,1.172216296E0,2.460169792E-1,2.533206940E-1
6.805055173E0,1.659371853E0,7.976040840E-1,-3.050484657E-1
6.810060056E0,1.392951488E0,1.178717613E0,-7.709999084E-1
6.815064939E0,1.587197185E-1,1.188872337E0,-8.528156281E-1
6.820100339E0,-6.601478457E-1,1.723385334E0,-2.482843399E-1
6.825105222E0,-1.028323770E0,2.256449223E0,2.575244904E-1
6.830110105E0,-6.295250654E-1,1.149932861E0,-4.764585495E-1
6.835114988E0,-1.057979822E0,7.812490463E-1,-3.528785706E-2
6.840119870E0,-1.843442559E0,1.399522305E0,3.043665886E-1
6.845155271E0,-2.719163418E0,1.481442451E0,1.418175697E0
6.850160154E0,-3.142520428E0,1.012748718E0,3.782408714E0
6.855165037E0,-2.615790844E0,4.781146049E-1,5.933177948E0
6.860169919E0,-2.013003826E0,2.284498215E-1,7.401171207E0
6.865174802E0,-2.130607367E0,9.010219574E-2,8.175421715E0
6.870210203E0,-2.447196722E0,9.149694443E-2,8.339967728E0
6.875215085E0,-3.529501915E0,1.341629028E-2,8.591600418E0
6.880219968E0,-3.296736717E0,3.653826714E-1,7.446886539E0
6.885224851E0,-1.822942972E0,1.326397419E0,5.502654076E0
6.890260251E0,-4.371266365E-1,2.183451176E0,4.132643700E0
6.895234617E0,6.253643036E-1,2.837184429E0,3.345501423E0
6.900270017E0,1.231489420E0,3.462553024E0,2.643056870E0
6.905305417E0,1.594301462E0,3.773366928E0,1.655228138E0
6.910310300E0,1.651456594E0,3.808414936E0,7.110352516E-1
6.915284665E0,1.407912016E0,3.691573143E0,7.906246185E-2
6.920289548E0,1.008530378E0,3.422123432E0,-3.436994553E-1
6.925324949E0,4.775550365E-1,3.000106335E0,-6.181812286E-1
6.930329831E0,-1.038980484E-1,2.646591663E0,-6.933474541E-1
6.935334714E0,-5.994014740E-1,2.365753174E0,-5.784273148E-1
6.940339597E0,-8.994095325E-1,2.201179028E0,-3.879590034E-1
6.945344480E0,-1.036018610E0,2.048274994E0,-1.278462410E-1
6.950379880E0,-1.077965260E0,1.938302994E0,8.558940887E-2
6.955384763E0,-1.015726805E0,1.810556889E0,2.739858627E-1
6.960389646E0,-9.298164845E-1,1.707068443E0,7.187190056E-1
6.965394529E0,-7.097175121E-1,1.500849724E0,1.106761456E0
6.970429929E0,-4.174654484E-1,1.212327957E0,1.283418655E0
6.975434812E0,-1.389355659E-1,9.191312790E-1,1.408251762E0
6.980439695E0,1.602632999E-1,6.525979042E-1,1.424562454E0
6.985475095E0,5.413076878E-1,4.788627625E-1,1.445631504E0
6.990479978E0,9.692528248E-1,2.978444099E-1,1.541924477E0
6.995454343E0,1.227279425E0,5.284404755E-2,1.578463078E0
7.000489744E0,1.357643366E0,-7.726573944E-2,1.682694912E0
7.005494626E0,1.250914574E0,-2.824726105E-1,1.961451530E0
7.010499509E0,9.668278694E-1,-4.602079391E-1,2.431363106E0
7.015504392E0,7.743129730E-1,-5.274143219E-1,2.441657066E0
7.020539792E0,6.646754742E-1,-5.177268982E-1,2.046619415E0
7.025544675E0,5.141403675E-1,-5.876150131E-1,1.708415985E0
7.030549558E0,6.431496143E-1,-6.317796707E-1,1.243426800E0
7.035554441E0,7.499263287E-1,-6.827325821E-1,1.005179405E0
7.040559324E0,9.241812229E-1,-6.416625977E-1,8.807244301E-1
7.045594724E0,1.126934052E0,-5.583953857E-1,8.403034210E-1
7.050599607E0,1.254763842E0,-4.417524338E-1,8.634667397E-1
7.055604490E0,1.304110765E0,-3.292269707E-1,1.004254818E0
7.060609372E0,1.393617392E0,-1.925382614E-1,1.120657921E0
7.065614255E0,1.479954004E0,-2.592325211E-2,1.221776485E0
7.070649656E0,1.549110889E0,1.419262886E-1,1.254618645E0
7.075654538E0,1.298846960E0,1.593132019E-1,1.247422218E0
7.080659421E0,1.146896839E0,2.079820633E-1,1.111488819E0
7.085664304E0,9.697742462E-1,2.260608673E-1,8.400568962E-1
7.090669187E0,6.377708912E-1,2.426385880E-1,6.377892494E-1
7.095704587E0,3.552052975E-1,2.087359428E-1,4.262332916E-1
7.100709470E0,1.081030369E-1,2.253103256E-1,2.040767670E-1
7.105714353E0,-1.795799732E-1,2.731494904E-1,6.624794006E-2
7.110719236E0,-4.770894051E-1,2.182025909E-1,-1.131677628E-2
7.115724119E0,-6.101176739E-1,2.598748207E-1,-1.294298172E-1
7.120759519E0,-4.166831970E-1,5.214605331E-1,-4.258966446E-1
7.125764402E0,-4.931066036E-1,5.833411217E-1,-6.452097893E-1
7.130769285E0,-7.120871544E-1,5.297188759E-1,-5.300211906E-1
7.135774167E0,-9.128904343E-1,5.028696060E-1,-2.664065361E-1
7.140779050E0,-1.160152912E0,3.877372742E-1,-9.188795090E-2
7.145814451E0,-1.232290745E0,2.593770027E-1,-9.940052032E-2
7.150819333E0,-1.137826443E0,1.372628212E-1,-2.213950157E-1
7.155824216E0,-9.442067146E-1,-5.145215988E-2,-9.588861465E-2
7.160829099E0,-6.141419411E-1,-2.027134895E-1,6.646490097E-2
7.165833982E0,-5.047926903E-1,-4.067640305E-1,3.405847549E-1
7.170869382E0,-2.071971893E-1,-5.183949471E-1,1.957330704E-1
7.175874265E0,1.150259972E-1,-5.024952888E-1,-1.527566910E-1
7.180879148E0,2.659215927E-1,-6.288590431E-1,-3.791112900E-1
7.185884031E0,1.533493996E-1,-8.865437508E-1,-4.075441360E-1
7.190888913E0,7.167673111E-2,-1.128455639E0,-5.443172455E-1
7.195924314E0,3.621339798E-2,-1.259276390E0,-5.666975975E-1
7.200929197E0,1.192369461E-1,-1.304043293E0,-5.331978798E-1
7.205934079E0,1.625413895E-1,-1.400374413E0,-3.810219765E-1
7.210938962E0,4.450635910E-1,-1.429696083E0,-9.860944748E-2
7.215943845E0,4.382362366E-1,-1.495834827E0,3.570175171E-2
7.220979245E0,1.629428864E-1,-1.596484184E0,1.847314835E-1
7.225984128E0,1.942920685E-1,-1.527594566E0,1.845450401E-1
7.230989011E0,1.376905441E-1,-1.560067654E0,-2.486014366E-1
7.235993894E0,-9.606170654E-2,-1.549276352E0,-6.376662254E-1
7.240998777E0,-4.971323013E-1,-1.659651279E0,-8.205132484E-1
7.246034177E0,-6.755290031E-1,-1.792866707E0,-8.929104805E-1
7.251039060E0,-3.618316650E-1,-1.728489876E0,-8.282065392E-1
7.256043943E0,-4.586725235E-1,-1.891911030E0,-6.934370995E-1
7.261048826E0,-5.732307434E-1,-2.018628597E0,-6.091866493E-1
7.266053708E0,-3.678412437E-1,-2.034359932E0,-7.054729462E-1
7.271058591E0,-7.094988823E-1,-2.130028725E0,-3.691725731E-1
7.276093992E0,-1.124070168E0,-2.345744610E0,4.515514374E-1
7.281098874E0,-1.346362591E0,-2.549746513E0,9.573297501E-1
7.286103757E0,-1.362046719E0,-2.730864525E0,1.746356487E0
7.291108640E0,-1.223079205E0,-2.836003304E0,2.119447708E0
7.296113523E0,-1.352764130E0,-2.792832375E0,2.245462418E0
7.301148923E0,-1.631277561E0,-2.713293552E0,2.350191593E0
7.306153806E0,-1.520700455E0,-2.616312027E0,2.341444016E0
7.311158689E0,-1.433722019E0,-2.547877789E0,2.310931206E0
7.316163572E0,-1.196605682E0,-2.262162209E0,1.726264000E0
7.321168454E0,-1.015851021E0,-1.890458107E0,7.194595337E-1
7.326173337E0,-1.047057152E0,-1.709530354E0,5.984210968E-2
7.331208738E0,-7.603378296E-1,-1.434015274E0,-2.967772484E-1
7.336213620E0,-3.936481476E-1,-1.190776825E0,-5.238199234E-1
7.341218503E0,4.486179352E-2,-8.286647797E-1,-5.212821960E-1
7.346223386E0,4.591355324E-1,-4.300689697E-1,-3.079562187E-1
7.351258787E0,5.483899117E-1,-7.884025574E-2,-7.106590271E-2
7.356263669E0,5.678539276E-1,1.058826447E-1,1.012945175E-2
7.361268552E0,4.916877747E-1,2.785172462E-1,1.597929001E-1
7.366273435E0,2.943267822E-1,3.518328667E-1,3.160424232E-1
7.371278318E0,2.049994469E-1,4.348645210E-1,4.923496246E-1
7.376283201E0,1.656436920E-2,5.287375450E-1,6.393818855E-1
7.381318601E0,-1.560544968E-1,6.614680290E-1,7.109756470E-1
7.386323484E0,-3.517193794E-1,8.353314400E-1,5.930218697E-1
7.391328367E0,-5.394034386E-1,1.021743298E0,3.213505745E-1
7.396333249E0,-7.068829536E-1,1.162944794E0,3.418540955E-2
7.401368650E0,-8.997159004E-1,1.314416409E0,-3.830671310E-2
7.406373533E0,-1.050644875E0,1.420631409E0,-2.669267654E-1
7.411378415E0,-9.527282715E-1,1.376510143E0,-4.179468155E-1
7.416383298E0,-6.533813477E-1,1.112935066E0,-5.861325264E-1
7.421388181E0,-1.597113609E-1,8.744034767E-1,-7.173914909E-1
7.426423581E0,3.186445236E-1,6.780576706E-1,-6.362514496E-1
7.431428464E0,7.923865318E-1,5.338706970E-1,-3.584852219E-1
7.436433347E0,1.421217442E0,4.173521996E-1,1.948676109E-1
7.441438230E0,1.966879845E0,1.765756607E-1,6.373214722E-1
7.446443113E0,2.503175735E0,-2.791643143E-2,7.435531616E-1
7.451478513E0,2.888285160E0,-2.009468079E-1,9.399056435E-1
7.456483396E0,3.194355011E0,-4.988722801E-1,7.405462265E-1
7.461488279E0,3.229560375E0,-7.882280350E-1,5.872864723E-1
7.466493162E0,3.181923389E0,-1.066824913E0,5.816721916E-1
7.471498044E0,3.201975346E0,-1.306045055E0,7.837915421E-2
7.476533445E0,3.110650063E0,-1.494365692E0,-3.474335670E-1
7.481538328E0,3.053670883E0,-1.703792572E0,-5.384278297E-1
7.486543210E0,2.795359612E0,-1.831231594E0,-6.714029312E-1
7.491548093E0,2.514751911E0,-1.860437393E0,-7.169876099E-1
7.496552976E0,2.386913776E0,-1.848984241E0,-7.934360504E-1
7.501588376E0,2.388424397E0,-1.732184410E0,-6.721491814E-1
7.506593259E0,2.275121689E0,-1.503171444E0,-5.801310539E-1
7.511598142E0,2.047015667E0,-1.252797127E0,-6.496157646E-1
7.516603025E0,1.978492260E0,-8.338055611E-1,-6.445112228E-1
7.521607908E0,1.977626324E0,-3.624734879E-1,-6.192927361E-1
7.526643308E0,1.827693939E0,1.515612602E-1,-4.629793167E-1
7.531648191E0,1.465921879E0,6.396341324E-1,-3.030228615E-1
7.536653074E0,1.154593945E0,1.084494114E0,-3.696227074E-1
7.541657956E0,9.062113762E-1,1.456649780E0,-6.547966003E-1
7.546662839E0,4.843401909E-1,1.741220474E0,-7.575058937E-1
7.551698240E0,1.033773422E-1,1.981529236E0,-9.729385376E-1
7.556703122E0,-9.767293930E-2,2.070127010E0,-1.383654118E0
7.561708005E0,-2.125883102E-1,2.116643429E0,-1.558187485E0
7.566712888E0,-3.267621994E-1,2.060298920E0,-1.725571632E0
7.571717771E0,-4.947357178E-1,1.891335487E0,-1.936331749E0
7.576753171E0,-5.593743324E-1,1.619051933E0,-2.102102757E0
7.581758054E0,-6.562781334E-1,1.257085800E0,-2.327468395E0
7.586762937E0,-6.549854279E-1,8.946924210E-1,-2.610349655E0
7.591767820E0,-5.992460251E-1,5.592327118E-1,-2.608780861E0
7.596772703E0,-4.717030525E-1,3.244395256E-1,-2.319638252E0
7.601808103E0,-3.139376640E-1,1.993994713E-1,-1.855138779E0
7.606812986E0,-9.866285324E-2,1.514945030E-1,-1.263599873E0
7.611817869E0,3.409247398E-1,1.436891556E-1,-7.961802483E-1
7.616822751E0,8.680825233E-1,2.320275307E-1,-4.361143112E-1
7.621827634E0,1.354410172E0,3.429298401E-1,-4.689645767E-2
7.626832517E0,1.682837009E0,5.226111412E-1,2.831664085E-1
7.631867917E0,1.990159512E0,6.135897636E-1,4.859142303E-1
7.636872800E0,2.741703510E0,7.575645447E-1,8.764829636E-1
7.641877683E0,3.474778175E0,9.094471931E-1,1.088508606E0
7.646882566E0,3.689303398E0,9.790492058E-1,9.201321602E-1
7.651917966E0,3.812530518E0,1.015799046E0,7.563924789E-1
7.656922849E0,4.024386406E0,1.034501076E0,6.318936348E-1
7.661927732E0,4.004213810E0,9.898366928E-1,5.930652618E-1
7.666932615E0,3.986815453E0,1.055156708E0,4.103946686E-1
7.671937497E0,3.787373066E0,1.112254620E0,3.711743355E-1
7.676972898E0,3.572651863E0,1.105932713E0,4.349737167E-1
7.681977781E0,3.514348507E0,1.104138851E0,4.760894775E-1
7.686982663E0,3.604194164E0,1.149011612E0,6.403732300E-1
7.691987546E0,3.596697807E0,1.074557781E0,7.815146446E-1
7.696992429E0,3.478478909E0,9.254059792E-1,9.828634262E-1
7.702027829E0,3.277582169E0,8.537549973E-1,1.338943481E0
7.707032712E0,3.173518658E0,8.590068817E-1,1.498615265E0
7.712037595E0,3.123159409E0,7.224535942E-1,1.575705528E0
7.717042478E0,3.123103619E0,6.162638664E-1,1.607851505E0
7.722047361E0,2.956084728E0,4.794383049E-1,1.486737728E0
7.727082761E0,2.832195759E0,2.364630699E-1,1.291419983E0
7.732087644E0,2.711733818E0,-3.219032288E-2,8.918409348E-1
7.737092527E0,2.470563412E0,-2.073187828E-1,6.417732239E-1
7.742097410E0,2.262398720E0,-2.694029808E-1,3.749208450E-1
7.747102292E0,2.192655087E0,-2.584891319E-1,-4.535818100E-2
7.752107175E0,2.350130081E0,-8.135271072E-2,-3.265781403E-1
7.757142576E0,2.536437035E0,1.643519402E-1,-5.671930313E-1
7.762147458E0,2.738714218E0,3.704214096E-1,-5.308461189E-1
7.767152341E0,2.786215305E0,5.058250427E-1,-5.130772591E-1
7.772157224E0,2.684913635E0,6.383538246E-1,-5.339956284E-1
7.777162107E0,2.460888863E0,7.711701393E-1,-4.419918060E-1
7.782197507E0,2.197388649E0,8.072714806E-1,-4.828009605E-1
7.787202390E0,1.996320724E0,8.084349632E-1,-4.678401947E-1
7.792207273E0,1.684819221E0,8.214259148E-1,-5.390949249E-1
7.797212156E0,1.457755566E0,7.145838737E-1,-7.179861069E-1
7.802217038E0,1.482090950E0,6.665410995E-1,-1.052794456E0
7.807252439E0,1.542334080E0,7.441110611E-1,-1.326676846E0
7.812257322E0,1.630094051E0,7.686576843E-1,-1.603668213E0
7.817262204E0,1.778450489E0,6.615581512E-1,-1.801612854E0
7.822267087E0,1.976373196E0,4.918842316E-1,-1.791116714E0
7.827271970E0,1.997725964E0,1.743469238E-1,-1.613835335E0
7.832307370E0,2.087881088E0,-5.077981949E-2,-1.552796841E0
7.837312253E0,2.264090061E0,-4.171547890E-1,-1.481108189E0
7.842317136E0,2.277937889E0,-8.236908913E-1,-1.152044296E0
7.847322019E0,2.353259563E0,-1.132133961E0,-3.664736748E-1
7.852326902E0,2.235043049E0,-1.340754986E0,8.360176086E-1
7.857362302E0,1.973540783E0,-1.477589130E0,2.086009979E0
7.862367185E0,1.158865452E0,-1.584471703E0,3.692282677E0
7.867372068E0,4.739317894E-1,-1.373817444E0,4.865790844E0
7.872376951E0,-6.630597115E-1,-1.101652145E0,6.353009701E0
7.877381833E0,-1.870158672E0,-6.693785191E-1,5.792744160E0
7.882417234E0,-2.338482857E0,-1.657171249E-1,4.435443401E0
7.887422117E0,-2.652624130E0,1.870493889E-1,2.674961567E0
7.892426999E0,-3.108175755E0,4.944415092E-1,1.317016125E0
7.897431882E0,-3.463857174E0,7.505056858E-1,1.780929565E-1
7.902436765E0,-3.099165916E0,9.490301609E-1,-9.829397202E-1
7.907472165E0,-3.037217140E0,1.062379122E0,-2.085981846E0
7.912477048E0,-3.016665459E0,1.112153292E0,-2.477482796E0
7.917481931E0,-2.320134163E0,1.089602947E0,-2.465985298E0
7.922486814E0,-1.696209908E0,1.014049768E0,-2.535008907E0
7.927491697E0,-1.328520775E0,1.063665867E0,-2.051016331E0
7.932527097E0,-8.157968521E-1,1.029261351E0,-1.268023014E0
7.937531980E0,-2.132725716E-1,1.030133486E0,-4.495353699E-1
7.942536863E0,1.173124313E-1,1.028742552E0,-1.492023468E-1
7.947541745E0,1.138181686E-1,9.212598801E-1,-3.495283127E-1
7.952546628E0,-1.015653610E-1,7.816390991E-1,-7.902874947E-1
7.957582029E0,-3.618559837E-1,5.174620152E-1,-1.038392544E0
7.962586912E0,-4.518537521E-1,1.119918823E-1,-7.648291588E-1
7.967591794E0,-4.240512848E-1,-3.231441975E-1,-9.222698212E-2
7.972596677E0,-3.532032967E-1,-7.872350216E-1,5.489897728E-1
7.977601560E0,-2.589559555E-1,-1.290749550E0,8.773951530E-1
7.982636960E0,-3.954811096E-1,-1.879310369E0,1.014150143E0
7.987641843E0,-7.338342667E-1,-2.402220964E0,9.988818169E-1
7.992646726E0,-9.945054054E-1,-2.831984282E0,1.043424129E0
7.997651609E0,-1.110038280E0,-3.186769009E0,1.347208977E0
8.002656492E0,-1.082840443E0,-3.342942476E0,1.447270870E0
8.007691892E0,-9.730181694E-1,-3.472274303E0,1.363424301E0
8.012696775E0,-9.365811348E-1,-3.429502964E0,1.161553860E0
8.017701658E0,-8.720369339E-1,-3.384261131E0,7.736439705E-1
8.022706540E0,-9.072279930E-1,-3.374367476E0,3.570866585E-1
8.027711423E0,-1.021539688E0,-3.391322136E0,3.221940994E-2
8.032746824E0,-1.091300488E0,-3.435906410E0,-3.412909508E-1
8.037751706E0,-1.243216991E0,-3.485782146E0,-7.959132195E-1
8.042756589E0,-1.452456474E0,-3.526090145E0,-1.022449017E0
8.047761472E0,-1.702317715E0,-3.424551964E0,-8.214969635E-1
8.052766355E0,-1.862892628E0,-3.306083679E0,-4.662470818E-1
8.057801755E0,-2.014221191E0,-3.288730145E0,2.145094872E-1
8.062806638E0,-2.476919174E0,-3.349308729E0,1.387265205E0
8.067811521E0,-3.054375172E0,-3.437831640E0,2.842851639E0
8.072816404E0,-3.660158157E0,-3.437492847E0,4.372347832E0
8.077821287E0,-3.995659351E0,-3.239168882E0,5.374446869E0
8.082856687E0,-4.166258335E0,-2.845388889E0,5.761507511E0
8.087861570E0,-4.194116592E0,-2.269809246E0,5.503950119E0
8.092866453E0,-3.903378487E0,-1.434836149E0,4.485107899E0
8.097871335E0,-3.522528648E0,-6.131539345E-1,3.354942322E0
8.102876218E0,-3.049283981E0,2.329540253E-2,2.447995663E0
8.107911619E0,-2.710855484E0,5.544874668E-1,1.632410049E0
8.112916501E0,-2.439004898E0,9.114677906E-1,8.043208122E-1
8.117921384E0,-2.226336002E0,1.156740904E0,-5.496501923E-2
8.122926267E0,-1.971450806E0,1.298678160E0,-7.587924004E-1
8.127931150E0,-1.700685501E0,1.267848015E0,-1.232934475E0
8.132966550E0,-1.412872791E0,1.126585960E0,-1.545585155E0
8.137971433E0,-1.012582779E0,8.746407032E-1,-1.561949730E0
8.142976316E0,-5.136170387E-1,5.117015839E-1,-1.474319935E0
8.147981199E0,-4.748821259E-3,8.639311790E-2,-1.182669163E0
8.152986081E0,3.137979507E-1,-2.670180798E-1,-8.538851738E-1
8.158021482E0,5.337634087E-1,-6.404712200E-1,-5.972924232E-1
8.163026365E0,7.031469345E-1,-9.725608826E-1,-4.630227089E-1
8.168031247E0,8.517184258E-1,-1.187950611E0,-2.935576439E-1
8.173036130E0,1.094899654E0,-1.315931559E0,-1.182532310E-1
8.178041013E0,1.353137016E0,-1.461050749E0,-1.038966179E-1
8.183076413E0,1.543175697E0,-1.457942486E0,-1.675562859E-1
8.188081296E0,1.687876225E0,-1.398412943E0,-2.530031204E-1
8.193086179E0,1.740785599E0,-1.260780334E0,-3.530006409E-1
8.198091062E0,1.773187637E0,-1.098450899E0,-3.440856934E-1
8.203095945E0,1.715343475E0,-8.970267773E-1,-2.195363045E-1
8.208131345E0,1.594368458E0,-8.211026192E-1,-5.019187927E-2
8.213136228E0,1.467649937E0,-7.479104996E-1,1.173501015E-1
8.218141111E0,1.435490131E0,-5.466165543E-1,1.313323975E-1
8.223145994E0,1.204442501E0,-4.850318432E-1,-1.099643707E-1
8.228150876E0,1.043047428E0,-4.386143684E-1,-3.042545319E-1
8.233186277E0,9.279403687E-1,-3.662154675E-1,-5.250239372E-1
8.238191160E0,8.050079346E-1,-3.007237911E-1,-8.123421669E-1
8.243196042E0,6.635799408E-1,-1.375923157E-1,-8.736310005E-1
8.248200925E0,5.049910545E-1,-4.957795143E-2,-6.059536934E-1
8.253205808E0,4.641942978E-1,2.900338173E-2,-9.062099457E-2
8.258241208E0,4.343285561E-1,1.830492020E-1,4.227733612E-1
8.263246091E0,1.705527306E-1,3.000180721E-1,8.443846703E-1
8.268250974E0,-1.002097130E-1,3.313174248E-1,1.094891071E0
8.273255857E0,-1.067805290E-1,5.600707531E-1,1.177639961E0
8.278260740E0,-2.402629852E-1,9.420998096E-1,1.116765499E0
8.283296140E0,-6.721673012E-1,1.150756121E0,9.371056557E-1
8.288301023E0,-1.209185600E0,1.269575596E0,6.826119423E-1
8.293305906E0,-1.750923634E0,1.453005552E0,5.799345970E-1
8.298310788E0,-2.306326866E0,1.513554573E0,4.031238556E-1
8.303315671E0,-2.612088203E0,1.579842806E0,3.084239960E-1
8.308351072E0,-2.354197025E0,1.648020267E0,4.648113251E-1
8.313355954E0,-1.172124863E0,1.595863581E0,3.484888077E-1
8.318360837E0,2.638521194E-1,1.389763832E0,-9.006214142E-2
8.323365720E0,1.392308235E0,1.054326296E0,-4.043865204E-1
8.328401120E0,2.025801182E0,9.570498466E-1,-1.181316376E-2
8.333406003E0,2.969584465E0,2.045505285E0,8.176617622E-1
8.338380369E0,4.244981766E0,4.524775982E0,2.379084110E0
8.343385251E0,6.239742756E0,6.640120506E0,7.394207001E0
8.348420652E0,6.588166237E0,6.002212524E0,1.279927158E1
8.353456052E0,5.193002701E0,3.926589727E0,1.375672150E1
8.358430417E0,4.412727356E0,2.162167788E0,1.142683220E1
8.363435300E0,2.980666161E0,7.648516893E-1,8.293252945E0
8.368470701E0,5.944824219E-1,-2.740848064E-2,4.551245689E0
8.373506101E0,-5.088062286E-1,-5.027457476E-1,1.873558044E0
8.378510984E0,-1.543670177E0,-1.165786147E0,9.504261017E-1
8.383515867E0,-2.533453941E0,-1.658607602E0,-1.619267464E-1
8.388520749E0,-3.508297443E0,-2.178992271E0,-1.281790257E0
8.393525632E0,-4.382354259E0,-2.792683125E0,-2.301291943E0
8.398530515E0,-4.779440403E0,-3.666798592E0,-2.974551201E0
8.403565915E0,-4.594079971E0,-4.571302414E0,-4.280508518E0
8.408570798E0,-4.085470676E0,-4.669561386E0,-4.561347961E0
8.413575681E0,-3.372238159E0,-4.251064777E0,-3.597709179E0
8.418580564E0,-2.081916332E0,-3.501012802E0,-2.998924255E0
8.423585447E0,-8.315429688E-1,-2.628460407E0,-2.392765045E0
8.428590329E0,-1.003065109E-1,-1.658218145E0,-1.509671688E0
8.433595212E0,4.514379501E-1,-9.814512730E-1,-4.565014839E-1
8.438630613E0,5.964608192E-1,-5.591143966E-1,5.445785522E-1
8.443635495E0,7.705588341E-1,-2.553773522E-1,1.539023399E0
8.448640378E0,7.512912750E-1,2.243140340E-2,2.232676506E0
8.453645261E0,6.024646759E-1,1.174841672E-1,2.356749058E0
8.458650144E0,3.709335327E-1,9.870508313E-2,2.066228867E0
8.463685544E0,-3.486728668E-2,8.820335567E-2,1.318873882E0
8.468690427E0,-4.916653633E-1,1.159958541E-1,2.833609581E-1
8.473695310E0,-8.211674690E-1,-4.743389785E-2,-8.599386215E-1
8.478700193E0,-7.519946098E-1,-3.999605179E-1,-2.135345459E0
8.483705076E0,-5.237197876E-1,-5.616139174E-1,-3.095392704E0
8.488740476E0,-3.278541565E-1,-7.208215594E-1,-3.515594959E0
8.493745359E0,-4.054789543E-1,-8.491351604E-1,-3.568993092E0
8.498750242E0,-6.797132492E-1,-8.683885336E-1,-3.589740276E0
8.503755124E0,-5.897660255E-1,-6.807903647E-1,-3.452028275E0
8.508760007E0,-4.149641991E-1,-4.493479133E-1,-3.245150566E0
8.513795408E0,-1.691465378E-1,-2.712782621E-1,-3.101954460E0
8.518800290E0,8.385181427E-2,-2.008861303E-2,-3.109499454E0
8.523805173E0,1.682901382E-1,1.728968024E-1,-3.114728451E0
8.528810056E0,2.171568871E-1,2.949905396E-1,-3.397367954E0
8.533845456E0,4.071588516E-1,4.455454350E-1,-3.863735199E0
8.538850339E0,5.121498108E-1,4.336254597E-1,-4.194063187E0
8.543855222E0,6.720032692E-1,3.424671888E-1,-4.579433441E0
8.548860105E0,7.073411942E-1,1.442466974E-1,-4.932107925E0
8.553864988E0,5.894522667E-1,-4.699456692E-2,-5.075167656E0
8.558869870E0,4.432444572E-1,-3.254604340E-1,-5.119654655E0
8.563874753E0,3.574309349E-1,-5.932536125E-1,-5.102408886E0
8.568879636E0,1.512584686E-1,-7.915818691E-1,-4.893435955E0
8.573884519E0,-1.227703094E-1,-1.011225820E0,-4.412254810E0
8.578889402E0,-3.911228180E-1,-1.060798645E0,-3.801397800E0
8.583924802E0,-8.372983932E-1,-9.697159529E-1,-3.167115211E0
8.588929685E0,-1.280934811E0,-8.117241859E-1,-2.531927109E0
8.593934568E0,-1.540509701E0,-3.749469519E-1,-1.800481319E0
8.598939451E0,-1.832582474E0,2.574087381E-1,-1.268253803E0
8.603974851E0,-1.927748203E0,8.363511562E-1,-1.010360718E0
8.608979734E0,-1.890619755E0,1.301422119E0,-9.317188263E-1
8.613984617E0,-1.955485821E0,1.516771555E0,-6.152896881E-1
8.618989499E0,-1.916409016E0,1.305392265E0,-4.729900360E-1
8.624024900E0,-1.590435028E0,1.015774727E0,-6.908740997E-1
8.629029783E0,-8.765110970E-1,7.207291126E-1,-8.998203278E-1
8.634034665E0,-6.880950928E-2,3.269617558E-1,-1.045189381E0
8.639070066E0,6.251788139E-1,4.320192337E-2,-1.119010448E0
8.644074949E0,1.160722256E0,-1.788194180E-1,-1.109297276E0
8.649079831E0,1.775615692E0,-3.847408295E-1,-1.003645897E0
8.654084714E0,2.288691998E0,-5.353116989E-1,-8.024387360E-1
8.659089597E0,3.026909351E0,-6.966586113E-1,-8.661999702E-1
8.664124997E0,2.963744164E0,-7.273352146E-1,-9.553203583E-1
8.669129880E0,2.018489838E0,-6.639692783E-1,-7.938399315E-1
8.674134763E0,1.309716225E0,-6.419568062E-1,-6.543841362E-1
8.679139646E0,9.403896332E-1,-5.931534767E-1,-9.990339279E-1
8.684144529E0,5.539727211E-1,-7.086009979E-1,-1.607852936E0
8.689179929E0,2.006864548E-1,-7.194898129E-1,-1.558004856E0
8.694184812E0,-3.661236763E-1,-7.345995903E-1,-1.205634117E0
8.699189695E0,-9.470582008E-1,-7.116374969E-1,-6.269021034E-1
8.704194578E0,-1.522638798E0,-6.851990223E-1,-1.085305214E-1
8.709199460E0,-1.965344429E0,-7.576050758E-1,5.668139458E-1
8.714234861E0,-2.431193829E0,-7.725872993E-1,1.410057068E0
8.719239744E0,-2.953170300E0,-6.996986866E-1,2.513088703E0
8.724244626E0,-3.214199543E0,-6.119525433E-1,3.281554699E0
8.729249509E0,-3.045853615E0,-5.892908573E-1,3.467370510E0
8.734254392E0,-2.721528530E0,-6.122012138E-1,3.212858677E0
8.739289792E0,-2.144583702E0,-6.378648281E-1,2.576332092E0
8.744294675E0,-1.524247169E0,-6.744813919E-1,1.757032394E0
8.749299558E0,-9.891576767E-1,-6.682679653E-1,1.051517010E0
8.754304441E0,-6.723914146E-1,-7.168335915E-1,5.131983757E-1
8.759309324E0,-4.459462166E-1,-9.388227463E-1,2.498345375E-1
8.764344724E0,-2.751326561E-1,-8.448746204E-1,3.574304581E-1
8.769349607E0,-3.427896500E-1,-8.586313725E-1,3.637838364E-1
8.774354490E0,-2.449188232E-1,-7.248816490E-1,4.066605568E-1
8.779359372E0,-1.327900887E-1,-3.581566811E-1,5.370316505E-1
8.784364255E0,6.121826172E-2,2.209265232E-1,7.691698074E-1
8.789399656E0,-2.510070801E-2,8.640184402E-1,8.880777359E-1
8.794404538E0,-1.712245941E-1,1.764488220E0,8.739991188E-1
8.799409421E0,-2.661752701E-2,2.772366285E0,1.150889397E0
8.804414304E0,-3.711299896E-1,3.511282206E0,1.517794609E0
8.809419187E0,-1.118486881E0,4.104482651E0,1.989514828E0
8.814424070E0,-1.581989765E0,4.432548523E0,2.777783394E0
8.819459470E0,-1.942157745E0,3.855854511E0,3.545175552E0
8.824464353E0,-2.253598213E0,2.106631517E0,3.976430416E0
8.829469236E0,-1.914803505E0,6.418485641E-1,3.477310658E0
8.834474119E0,-1.277287960E0,2.093076706E-3,2.132988930E0
8.839509519E0,-8.350629807E-1,-1.783857346E-1,-6.812572479E-2
8.844514402E0,1.550655365E-1,-1.725878716E-1,-2.064609051E0
8.849519285E0,1.437340260E0,3.941237926E-1,-3.130968094E0
8.854524167E0,2.037991047E0,9.332277775E-1,-3.648131847E0
8.859529050E0,2.213839054E0,1.368587017E0,-3.518104076E0
8.864564451E0,1.998799801E0,1.742815971E0,-2.986236095E0
8.869569333E0,1.575810432E0,2.189615011E0,-2.056334972E0
8.874574216E0,1.331305027E0,2.301464319E0,-1.033887863E0
8.879579099E0,1.174577236E0,2.230143547E0,-1.091160774E-1
8.884583982E0,1.300623894E0,2.150479317E0,8.376188278E-1
8.889619382E0,1.173507690E0,1.892322063E0,1.282593250E0
8.894624265E0,6.832346916E-1,1.483586311E0,1.352967262E0
8.899629148E0,4.261097908E-1,8.458070755E-1,1.179349422E0
8.904634031E0,1.666088104E-1,2.889299393E-1,7.488307953E-1
8.909638913E0,5.460166931E-2,-3.656268120E-1,3.691520691E-1
8.914674314E0,-6.191492081E-2,-1.042823315E0,-4.640913010E-2
8.919679197E0,-1.171903610E-1,-1.598429203E0,-4.633646011E-1
8.924684079E0,3.171014786E-2,-1.940143108E0,-6.088018417E-1
8.929688962E0,2.276978493E-1,-2.034065247E0,-6.193356514E-1
8.934693845E0,4.437246323E-1,-2.105568886E0,-5.417404175E-1
8.939698728E0,4.618206024E-1,-1.997138500E0,-3.905372620E-1
8.944734128E0,4.112634659E-1,-1.764903545E0,-1.325130463E-3
8.949739011E0,4.946756363E-1,-1.513922215E0,4.600963593E-1
8.954743894E0,4.201493263E-1,-1.190648556E0,1.100408077E0
8.959748777E0,1.302814484E-1,-6.198210716E-1,1.554518700E0
8.964753660E0,-1.310424805E-1,2.862310410E-2,1.493178844E0
8.969789060E0,-5.790624619E-1,6.019673347E-1,9.928307533E-1
8.974793943E0,-1.161314011E0,1.211861134E0,4.568433762E-1
8.979798826E0,-1.615931034E0,1.656438351E0,1.596789360E-1
8.984803708E0,-2.113723755E0,1.759867191E0,8.225488663E-2
8.989808591E0,-2.601451397E0,1.719187737E0,4.077768326E-2
8.994843992E0,-2.916169643E0,1.604908943E0,8.087635040E-2
8.999848874E0,-2.515624523E0,1.430158615E0,-2.197732925E-1
9.004853757E0,-2.248532295E0,1.109013557E0,-6.298985481E-1
9.009858640E0,-2.325019360E0,5.719838142E-1,-4.085474014E-1
9.014863523E0,-2.174628735E0,1.065731049E-1,-2.946043015E-2
9.019898923E0,-2.154634714E0,-3.541703224E-1,3.084530830E-1
9.024903806E0,-2.186505795E0,-6.433138847E-1,5.432138443E-1
9.029908689E0,-2.195491791E0,-8.321013451E-1,7.485518456E-1
9.034913572E0,-2.314644814E0,-9.117279053E-1,6.911449432E-1
9.039918454E0,-2.412090778E0,-1.021740913E0,5.720796585E-1
9.044953855E0,-2.076330900E0,-1.274744511E0,3.331027031E-1
9.049958738E0,-1.884243965E0,-1.596788406E0,1.812629700E-1
9.054963620E0,-1.486251831E0,-2.023883820E0,-7.407093048E-2
9.059968503E0,-1.025475740E0,-2.457746029E0,-4.099068642E-1
9.064973386E0,-6.383264065E-1,-2.917164326E0,-7.104325294E-1
9.070008787E0,-2.045669556E-1,-3.377610207E0,-1.176063538E0
9.075013669E0,1.579625607E-1,-3.769217968E0,-1.702777863E0
9.080018552E0,4.472348690E-1,-4.139930248E0,-2.114708424E0
9.085023435E0,5.607388020E-1,-4.406264305E0,-2.383221626E0
9.090028318E0,4.832022190E-1,-4.638439178E0,-2.382610798E0
9.095063718E0,4.655871391E-1,-4.820155144E0,-2.358757496E0
9.100068601E0,5.978784561E-1,-4.831605434E0,-2.241738796E0
9.105073484E0,6.978206635E-1,-4.716044426E0,-1.981617928E0
9.110078367E0,8.175215721E-1,-4.542252064E0,-1.643088818E0
9.115083249E0,9.377079010E-1,-4.332458019E0,-1.283794880E0
9.120118650E0,9.582598209E-1,-4.119642258E0,-9.443759918E-1
9.125123533E0,1.020639658E0,-3.848366737E0,-7.066841125E-1
9.130128415E0,1.131289005E0,-3.614748001E0,-7.314362526E-1
9.135133298E0,1.286414862E0,-3.372817039E0,-8.130369186E-1
9.140138181E0,1.362880230E0,-3.118834496E0,-7.936234474E-1
9.145173581E0,1.294134617E0,-2.976994991E0,-1.011628628E0
9.150178464E0,1.336260080E0,-2.871410847E0,-1.250047684E0
9.155183347E0,1.363623381E0,-2.715681553E0,-1.452309132E0
9.160188230E0,1.229018450E0,-2.558356762E0,-1.894577026E0
9.165193113E0,1.073766470E0,-2.416101456E0,-2.410006523E0
9.170228513E0,9.607734680E-1,-2.276030064E0,-2.787057400E0
9.175233396E0,7.639479637E-1,-2.185255527E0,-2.804705620E0
9.180238279E0,6.053342819E-1,-2.134253502E0,-2.793017864E0
9.185243162E0,2.961490154E-1,-2.129199028E0,-2.602061749E0
9.190248044E0,-1.788058281E-1,-2.144288063E0,-1.918639660E0
9.195283445E0,-1.892905235E-1,-2.086410999E0,-1.259953499E0
9.200288328E0,-2.286007404E-1,-1.952258587E0,-9.300656319E-1
9.205293210E0,-3.716542721E-1,-1.780310154E0,-4.180359840E-1
9.210298093E0,-4.403781891E-1,-1.685935020E0,3.569912910E-1
9.215302976E0,-4.134356976E-1,-1.635079861E0,1.096118927E0
9.220338376E0,-4.168636799E-1,-1.461499691E0,1.771525383E0
9.225343259E0,-1.827602386E-1,-1.254036427E0,2.482265472E0
9.230348142E0,-8.263087273E-2,-1.252879620E0,3.086476326E0
9.235353025E0,1.928706169E-1,-1.046459675E0,3.206891060E0
9.240357908E0,4.675328732E-1,-7.206687927E-1,3.212948322E0
9.245393308E0,6.364381313E-1,-4.057874680E-1,3.373055935E0
9.250398191E0,8.761658669E-1,-1.950249672E-1,3.404343605E0
9.255403074E0,1.259629965E0,-1.813936234E-2,3.371064186E0
9.260407956E0,1.474720716E0,6.675529480E-2,3.400821686E0
9.265412839E0,1.502939463E0,-5.327653885E-2,3.293686867E0
9.270448240E0,1.652905822E0,-3.216166496E-1,3.107228279E0
9.275453122E0,1.742910743E0,-5.737876892E-1,2.721512794E0
9.280458005E0,1.720865846E0,-8.006730080E-1,2.170536995E0
9.285462888E0,1.838323355E0,-9.988527298E-1,1.535014153E0
9.290467771E0,1.928948164E0,-1.145466805E0,9.156570435E-1
9.295503171E0,1.923378468E0,-1.212521553E0,3.221635818E-1
9.300508054E0,2.125458241E0,-1.321443558E0,-2.257490158E-1
9.305512937E0,2.399508953E0,-1.400089264E0,-6.528186798E-1
9.310517820E0,2.413841486E0,-1.479558468E0,-8.787403107E-1
9.315522703E0,2.472885609E0,-1.438786030E0,-1.104517937E0
9.320558103E0,2.477122545E0,-1.391686440E0,-1.331660271E0
9.325562986E0,2.233089924E0,-1.453259468E0,-1.321289062E0
9.330567869E0,1.721828580E0,-1.573036671E0,-1.118628502E0
9.335572751E0,1.145523190E0,-1.660036087E0,-8.525514603E-1
9.340577634E0,5.405706167E-1,-1.827919483E0,-5.381774902E-1
9.345613035E0,8.484268188E-2,-1.970532417E0,-1.259336472E-1
9.350617917E0,-1.199343204E-1,-2.163797855E0,2.580080032E-1
9.355622800E0,8.425378799E-2,-2.379909039E0,5.176029205E-1
9.360627683E0,1.963607073E-1,-2.529413700E0,7.974576950E-1
9.365632566E0,1.351215839E-1,-2.670031548E0,8.970079422E-1
9.370667966E0,3.383713961E-1,-2.737097263E0,6.552515030E-1
9.375672849E0,5.587350130E-1,-2.740078449E0,6.203861237E-1
9.380677732E0,6.631165743E-1,-2.587309361E0,7.764530182E-1
9.385682615E0,7.134051323E-1,-2.387721062E0,4.870500565E-1
9.390687497E0,6.432965994E-1,-2.126075268E0,1.350831985E-1
9.395722898E0,4.346032143E-1,-1.770537376E0,1.380681992E-1
9.400727781E0,5.083534718E-1,-1.354701519E0,4.283008575E-1
9.405732663E0,8.019988537E-1,-7.484722137E-1,9.436492920E-1
9.410737546E0,1.138236761E0,4.557704926E-2,1.708167076E0
9.415742429E0,1.094254017E0,5.844821930E-1,2.692649841E0
9.420777829E0,1.043973684E0,1.161925793E0,3.799168587E0
9.425782712E0,1.658349395E0,2.329239368E0,4.778521538E0
9.430787595E0,2.262371302E0,3.995184422E0,4.994715691E0
9.435792478E0,2.907617092E0,5.995913506E0,4.180453300E0
9.440797361E0,3.892147541E0,8.293585777E0,3.028573990E0
9.445832761E0,4.834754944E0,9.962300301E0,1.951496124E0
9.450837644E0,5.092530727E0,1.026880455E1,1.207192421E0
9.455842527E0,4.873624325E0,9.765882492E0,7.249574661E-1
9.460847410E0,4.365171909E0,8.805610657E0,2.098827362E-1
9.465852292E0,3.165070057E0,7.156078815E0,-3.515825272E-1
9.470887693E0,1.383745074E0,4.752943993E0,-6.715583801E-1
9.475892576E0,-7.500845194E-1,2.175250530E0,-1.550588608E-1
9.480897458E0,-2.065275908E0,-1.191973686E-1,6.100368500E-1
9.485902341E0,-2.729117155E0,-2.010032654E0,9.733266830E-1
9.490907224E0,-3.133529663E0,-3.277202606E0,1.102186203E0
9.495942624E0,-3.086533308E0,-4.075918198E0,1.194623947E0
9.500947507E0,-2.680675983E0,-4.109057426E0,1.479430199E0
9.505952390E0,-1.794597507E0,-2.970958233E0,1.348799706E0
9.510957273E0,-8.908320665E-1,-1.376853466E0,9.938344955E-1
9.515962156E0,9.404039383E-2,3.205113411E-1,1.246433258E0
9.520997556E0,1.005378366E0,1.931009769E0,2.333982468E0
9.526002439E0,1.410544634E0,3.150886536E0,3.449477196E0
9.531007322E0,1.380448818E0,3.709871292E0,4.288835526E0
9.536012204E0,8.079322577E-1,3.475661278E0,5.003113747E0
9.541017087E0,3.434462547E-1,2.744122028E0,5.084017754E0
9.546021970E0,2.659976482E-1,1.996675014E0,4.803742409E0
9.551057370E0,1.741383076E-1,1.116789341E0,4.510077477E0
9.556062253E0,-5.150313377E-1,-1.568598747E-1,4.447342873E0
9.561067136E0,-1.658533335E0,-1.395915031E0,3.893682480E0
9.566072019E0,-2.852540016E0,-2.400527000E0,2.342929840E0
9.571076902E0,-2.758252859E0,-2.533668995E0,1.546021461E0
9.576112302E0,-3.689799547E0,-2.625562191E0,1.017313004E0
9.581117185E0,-4.414589882E0,-2.489743233E0,1.221466064E-1
9.586122068E0,-2.770331144E0,-1.662549496E0,-5.018568039E-1
9.591126951E0,-1.223394394E0,-9.600772858E-1,-9.949502945E-1
9.596131833E0,-3.981757164E-1,-6.809148788E-1,-9.823999405E-1
9.601167234E0,3.390851021E-1,-5.439553261E-1,-4.736785889E-1
9.606172117E0,1.033280373E0,-4.561061859E-1,-3.022613525E-1
9.611176999E0,2.620262146E0,-1.290240288E0,-8.655300140E-1
9.616181882E0,2.955715418E0,-1.581090450E0,-8.731155396E-1
9.621186765E0,2.318961382E0,-7.603478432E-1,-1.850919724E-1
9.626191648E0,2.228626728E0,-4.959011078E-2,2.909355164E-1
9.631196531E0,2.798584223E0,1.032376289E-1,5.003814697E-1
9.636201413E0,3.944101810E0,-1.394205570E0,2.725672722E-1
9.641206296E0,2.786140919E0,-1.691124916E0,1.162144661E0
9.646241697E0,1.524321556E0,-1.129950523E0,1.694217682E0
9.651246579E0,2.989354372E0,-1.947499752E0,1.315453053E0
9.656281980E0,3.506306887E0,-3.358574867E0,1.058353901E0
9.661286863E0,1.603433132E0,-2.759084225E0,1.771927357E0
9.666291745E0,1.110753775E0,-2.084260464E0,1.814218044E0
9.671327146E0,2.492212772E0,-2.795661926E0,1.106815815E0
9.676332029E0,3.275599718E0,-4.072957993E0,5.764441490E-1
9.681336912E0,2.081664085E0,-3.610053539E0,7.393589020E-1
9.686341794E0,1.750301361E0,-2.677130222E0,3.772926331E-1
9.691346677E0,1.806852818E0,-1.871310234E0,-1.339812279E-1
9.696351560E0,1.818814039E0,-1.527992725E0,-2.909302711E-1
9.701386960E0,1.480632544E0,-1.396804810E0,-1.032171249E-1
9.706391843E0,1.654350519E0,-1.143849373E0,-1.528930664E-2
9.711396726E0,3.858762026E0,-2.173439026E0,-5.922441483E-1
9.716401609E0,4.158994675E0,-2.830838203E0,-8.493757248E-1
9.721406492E0,2.723859787E0,-2.081822395E0,-5.353469849E-1
9.726441892E0,1.771672249E0,-1.259877205E0,-4.957008362E-1
9.731446775E0,1.409845352E0,-5.175099373E-1,-2.404689789E-1
9.736451658E0,1.290008068E0,1.654915810E-1,3.894481659E-1
9.741456540E0,7.725248337E-1,6.425676346E-1,9.267878532E-1
9.746461423E0,-9.977293015E-2,8.138809204E-1,1.029946327E0
9.751496824E0,-6.550607681E-1,9.479498863E-1,8.029861450E-1
9.756501706E0,-7.552924156E-1,1.358262539E0,3.289709091E-1
9.761506589E0,-6.515278816E-1,1.894512653E0,-8.606290817E-2
9.766511472E0,-4.591150284E-1,2.186374187E0,-1.385235786E-1
9.771516355E0,-5.109853745E-1,1.952721119E0,7.408094406E-2
9.776551755E0,-7.595090866E-1,1.290403843E0,2.737855911E-1
9.781556638E0,-8.663649559E-1,6.292753220E-1,2.586660385E-1
9.786561521E0,-6.007385254E-1,1.708803177E-1,1.023120880E-1
9.791566404E0,-4.602179527E-1,-5.246305466E-2,8.184003830E-2
9.796571287E0,-2.801213264E-1,1.476783752E-1,3.624105453E-2
9.801606687E0,-1.040749550E-1,3.118777275E-1,-9.078264236E-2
9.806611570E0,-1.957449913E-1,4.019870758E-1,-1.151380539E-1
9.811616453E0,1.967082024E-1,-4.995489120E-2,-7.368001938E-1
9.816621335E0,1.558538914E0,-1.534545422E0,-1.691030979E0
9.821626218E0,7.207126617E-1,-1.763457775E0,-1.563726902E0
9.826661619E0,-8.929929733E-1,-7.330842018E-1,-1.674374580E0
9.831666501E0,-8.276782036E-1,-1.934704781E-1,-2.025408268E0
9.836671384E0,-9.676280022E-1,1.123471260E-1,-2.000073433E0
9.841676267E0,-1.314362049E0,1.928157806E-1,-1.792725086E0
9.846681150E0,-1.467281342E0,1.005601883E-1,-1.574510574E0
9.851716550E0,-1.601606369E0,-1.362991333E-2,-1.436601639E0
9.856721433E0,-1.433968544E0,1.629290581E-1,-1.341796398E0
9.861726316E0,-1.052568436E0,3.631258011E-1,-1.066784859E0
9.866731199E0,-6.600852013E-1,4.623446465E-1,-6.896615028E-1
9.871736081E0,-7.271738052E-1,3.927116394E-1,-4.352021217E-1
9.876771482E0,-3.471632004E-1,3.032321930E-1,-3.149323463E-1
9.881776365E0,5.236730576E-1,3.971829414E-1,-3.333568573E-2
9.886781247E0,1.113919735E0,7.402920723E-1,2.644691467E-1
9.891786130E0,1.406421661E0,1.080353737E0,5.818185806E-1
9.896791013E0,1.431568146E0,1.302941799E0,8.643832207E-1
9.901826413E0,1.353448391E0,1.471889019E0,1.056691647E0
9.906831296E0,1.080162048E0,1.530001640E0,1.068016529E0
9.911836179E0,3.625817299E-1,1.353248119E0,1.039901257E0
9.916841062E0,-4.688100815E-1,1.028863430E0,9.774608612E-1
9.921845945E0,-1.165928841E0,4.807476997E-1,8.678269386E-1
9.926881345E0,-1.752168179E0,-3.838539124E-3,9.615392685E-1
9.931886228E0,-2.154290199E0,-2.837514877E-1,7.820048332E-1
9.936891111E0,-2.179194927E0,-5.854859352E-1,8.354091644E-1
9.941895994E0,-2.118186951E0,-8.347721100E-1,8.009362221E-1
9.946900876E0,-1.700002670E0,-9.857792854E-1,5.600886345E-1
9.951936277E0,-1.140804768E0,-8.924274445E-1,1.879944801E-1
9.956941160E0,-5.415468216E-1,-6.365652084E-1,-2.967023849E-1
9.961946042E0,1.743135452E-1,-3.893785477E-1,-6.170139313E-1
9.966950925E0,6.042470932E-1,-1.031322479E-1,-7.949013710E-1
9.971955808E0,9.572720528E-1,1.649808884E-2,-9.888429642E-1
9.976991208E0,1.389548779E0,1.519489288E-1,-1.000170708E0
9.981996091E0,1.808582783E0,3.517012596E-1,-8.828930855E-1
9.987000974E0,1.881218910E0,5.434246063E-1,-6.962080002E-1
9.992005857E0,1.736825466E0,6.493387222E-1,-4.465327263E-1
9.997010740E0,1.470085144E0,5.303540230E-1,-2.916455269E-1
1.000204614E1,1.090844631E0,1.478700638E-1,-1.661300659E-1
1.000705102E1,5.351166725E-1,-3.598346710E-1,-1.286287308E-1
1.001205591E1,1.152706146E-1,-7.646560669E-1,-6.133794785E-2
1.001706079E1,-2.807674408E-1,-8.931169510E-1,-7.891273499E-2
1.002206567E1,-5.281033516E-1,-9.241390228E-1,-1.804165840E-1
1.002710107E1,-4.714827538E-1,-8.477206230E-1,-2.396192551E-1
1.003210595E1,-5.679383278E-1,-6.573204994E-1,-2.816495895E-1
1.003711084E1,-5.066771507E-1,-5.456905365E-1,-1.967077255E-1
1.004211572E1,-4.247355461E-1,-6.745877266E-1,-1.033663750E-1
1.004712060E1,-4.518051147E-1,-9.360742569E-1,-1.163544655E-1
1.005215600E1,-2.804684639E-1,-1.021159172E0,-1.427717209E-1
1.005716089E1,7.940220833E-2,-8.892240524E-1,-8.590841293E-2
1.006216577E1,4.371302128E-1,-6.038799286E-1,-1.217365265E-2
1.006717065E1,7.242944241E-1,-2.721157074E-1,1.044979095E-1
1.007217554E1,7.351243496E-1,4.424047470E-2,2.726087570E-1
1.007721094E1,7.708759308E-1,1.916999817E-1,3.884625435E-1
1.008221582E1,8.852958679E-1,2.668585777E-1,3.431639671E-1
1.008722070E1,8.800911903E-1,3.547649384E-1,4.096488953E-1
1.009222558E1,9.712953568E-1,4.257287979E-1,4.168539047E-1
1.009723047E1,9.503352642E-1,2.950253487E-1,2.725353241E-1
1.010226587E1,9.774162769E-1,-1.034736633E-4,8.079242706E-2
1.010727075E1,9.342560768E-1,-2.604541779E-1,-1.247882843E-3
1.011227563E1,9.254262447E-1,-4.302597046E-1,-1.709847450E-1
1.011728052E1,9.675991535E-1,-5.236468315E-1,-1.873750687E-1
1.012228540E1,8.833503723E-1,-6.115112305E-1,-1.522412300E-1
1.012729028E1,5.982298851E-1,-5.231819153E-1,3.781795502E-3
1.013232568E1,3.742458820E-1,-3.204188347E-1,1.820087433E-1
1.013733056E1,3.943390846E-1,-1.261377335E-1,4.076614380E-1
1.014233545E1,6.143357754E-1,1.108999252E-1,5.244894028E-1
1.014734033E1,8.747463226E-1,3.310523033E-1,4.455051422E-1
1.015234521E1,9.627830982E-1,4.266676903E-1,2.063832283E-1
1.015738061E1,7.748250961E-1,3.768067360E-1,-8.989715576E-2
1.016238550E1,5.017349720E-1,3.577556610E-1,-2.068972588E-1
1.016739038E1,4.188559055E-1,6.914458275E-1,-2.820968628E-1
1.017239526E1,5.933699608E-1,1.323115349E0,-3.716483116E-1
1.017740014E1,1.118133068E0,2.437589645E0,-3.380942345E-1
1.018243554E1,1.988601446E0,3.770218849E0,-3.008179665E-1
1.018744043E1,3.035598516E0,5.293794632E0,-2.498893738E-1
1.019244531E1,4.095959663E0,6.576621056E0,-5.367503166E-1
1.019745019E1,4.989219666E0,7.850976944E0,-1.038333893E0
1.020245508E1,5.429094315E0,8.560941696E0,-1.829786301E0
1.020749048E1,5.172891617E0,8.719606400E0,-2.505605698E0
1.021249536E1,4.790462494E0,7.737317085E0,-3.018510818E0
